[
  {
    "view_history": "[{\"page_index\":0,\"viewing_time\":710.3750000005675},{\"page_index\":1,\"viewing_time\":329.265000000305}]",
    "rt": 1040.0850000005448,
    "part": "instruction",
    "trial_type": "instructions",
    "trial_index": 0,
    "time_elapsed": 1041,
    "internal_node_id": "0.0-0.0",
    "subject": "1"
  },
  {
    "rt": null,
    "stimulus": "audio/mp3/conf-001.mp3",
    "key_press": null,
    "part": "Audio",
    "audio_id": 1,
    "audio_file": "conf-001.mp3",
    "trial_type": "audio-keyboard-response",
    "trial_index": 1,
    "time_elapsed": 6120,
    "internal_node_id": "0.0-1.0",
    "subject": "1"
  },
  {
    "rt": 12511.85500000065,
    "responses": "{\"rep\":\"What keep us happy and healthy as we g thrue life\"}",
    "trial_type": "survey-html-form",
    "trial_index": 2,
    "time_elapsed": 18634,
    "internal_node_id": "0.0-2.0",
    "subject": "1",
    "retransc": "What keep us happy and healthy as we g thrue life"
  },
  {
    "rt": null,
    "stimulus": "audio/mp3/conf-002.mp3",
    "key_press": null,
    "part": "Audio",
    "audio_id": 2,
    "audio_file": "conf-002.mp3",
    "trial_type": "audio-keyboard-response",
    "trial_index": 3,
    "time_elapsed": 23789,
    "internal_node_id": "0.0-3.0",
    "subject": "1"
  },
  {
    "rt": 12511.529999999766,
    "responses": "{\"rep\":\"invest, now, in your future best serlf ?\"}",
    "trial_type": "survey-html-form",
    "trial_index": 4,
    "time_elapsed": 36302,
    "internal_node_id": "0.0-4.0",
    "subject": "1",
    "retransc": "invest, now, in your future best serlf ?"
  }
]