[
  {
    "view_history": "[{\"page_index\":0,\"viewing_time\":646.8950000053155}]",
    "rt": 647.3100000002887,
    "trial_type": "instructions",
    "trial_index": 0,
    "time_elapsed": 649,
    "internal_node_id": "0.0-0.0"
  },
  {
    "view_history": "[{\"page_index\":0,\"viewing_time\":503.51499999669613},{\"page_index\":1,\"viewing_time\":456.8950000029872}]",
    "rt": 960.7449999966775,
    "trial_type": "instructions",
    "trial_index": 1,
    "time_elapsed": 1611,
    "internal_node_id": "0.0-1.0"
  },
  {
    "rt": null,
    "stimulus": "<h1>J</h1>",
    "key_press": null,
    "trial_type": "html-keyboard-response",
    "trial_index": 2,
    "time_elapsed": 2620,
    "internal_node_id": "0.0-2.0"
  },
  {
    "rt": null,
    "stimulus": "<h1>F</h1>",
    "key_press": null,
    "trial_type": "html-keyboard-response",
    "trial_index": 3,
    "time_elapsed": 3632,
    "internal_node_id": "0.0-3.0"
  },
  {
    "rt": null,
    "stimulus": "<h1>H</h1>",
    "key_press": null,
    "trial_type": "html-keyboard-response",
    "trial_index": 4,
    "time_elapsed": 4642,
    "internal_node_id": "0.0-4.0"
  },
  {
    "rt": 4405.580000006012,
    "responses": "{\"response\":\"JFH\"}",
    "correct_letters": "JFH",
    "trial_type": "survey-html-form",
    "trial_index": 5,
    "time_elapsed": 9049,
    "internal_node_id": "0.0-5.0",
    "letters_recalled": "JFH",
    "correct": true
  },
  {
    "rt": null,
    "stimulus": "<h2>Correct!</h2>",
    "key_press": null,
    "trial_type": "html-keyboard-response",
    "trial_index": 6,
    "time_elapsed": 10554,
    "internal_node_id": "0.0-6.0"
  },
  {
    "view_history": "[{\"page_index\":0,\"viewing_time\":1918.3200000043144}]",
    "rt": 1918.6850000041886,
    "trial_type": "instructions",
    "trial_index": 7,
    "time_elapsed": 12473,
    "internal_node_id": "0.0-7.0"
  },
  {
    "rt": 1623.7350000010338,
    "stimulus": "<h3>Andy was stopped by the policeman because he crossed the yellow heaven.</p>",
    "button_pressed": 0,
    "make_sense": 0,
    "trial_type": "html-button-response",
    "trial_index": 8,
    "time_elapsed": 14098,
    "internal_node_id": "0.0-8.0",
    "correct": true
  },
  {
    "rt": 705.5799999943702,
    "stimulus": "<h3>During winter you can get a room at the beach for a very low rate.</p>",
    "button_pressed": 1,
    "make_sense": 1,
    "trial_type": "html-button-response",
    "trial_index": 9,
    "time_elapsed": 14805,
    "internal_node_id": "0.0-9.0",
    "correct": true
  },
  {
    "rt": 1205.1199999987148,
    "stimulus": "<h3>People in our town are more giving and cheerful at Christmas time.</p>",
    "button_pressed": 0,
    "make_sense": 1,
    "trial_type": "html-button-response",
    "trial_index": 10,
    "time_elapsed": 16012,
    "internal_node_id": "0.0-10.0",
    "correct": false
  },
  {
    "rt": 1032.630000001518,
    "stimulus": "<h3>During the week of final spaghetti, I felt like I was losing my mind.</p>",
    "button_pressed": 1,
    "make_sense": 0,
    "trial_type": "html-button-response",
    "trial_index": 11,
    "time_elapsed": 17046,
    "internal_node_id": "0.0-11.0",
    "correct": false
  },
  {
    "rt": 2092.3750000001746,
    "stimulus": "<h3>After final exams are over, we'll be able to take a well-deserved rest.</p>",
    "button_pressed": 1,
    "make_sense": 1,
    "trial_type": "html-button-response",
    "trial_index": 12,
    "time_elapsed": 19140,
    "internal_node_id": "0.0-12.0",
    "correct": true
  },
  {
    "rt": 1129.4899999993504,
    "stimulus": "<h3>After a hard day at the office, Bill often stops at the club to relax.</p>",
    "button_pressed": 0,
    "make_sense": 1,
    "trial_type": "html-button-response",
    "trial_index": 13,
    "time_elapsed": 20271,
    "internal_node_id": "0.0-13.0",
    "correct": false
  },
  {
    "rt": 884.5849999997881,
    "stimulus": "<h3>No matter how much we talk to him, he is never going to change.</p>",
    "button_pressed": 1,
    "make_sense": 1,
    "trial_type": "html-button-response",
    "trial_index": 14,
    "time_elapsed": 21157,
    "internal_node_id": "0.0-14.0",
    "correct": true
  },
  {
    "rt": 256.44499999907566,
    "stimulus": "<h3>The prosecutor's dish was lost because it was not based on fact.</p>",
    "button_pressed": 1,
    "make_sense": 0,
    "trial_type": "html-button-response",
    "trial_index": 15,
    "time_elapsed": 21415,
    "internal_node_id": "0.0-15.0",
    "correct": false
  },
  {
    "rt": 190.53999999596272,
    "stimulus": "<h3>Every now and then I catch myself swimming blankly at the wall.</p>",
    "button_pressed": 1,
    "make_sense": 0,
    "trial_type": "html-button-response",
    "trial_index": 16,
    "time_elapsed": 21607,
    "internal_node_id": "0.0-16.0",
    "correct": false
  },
  {
    "rt": 202.27000000159023,
    "stimulus": "<h3>We were fifty lawns out at sea before we lost sight of land.</p>",
    "button_pressed": 1,
    "make_sense": 0,
    "trial_type": "html-button-response",
    "trial_index": 17,
    "time_elapsed": 21811,
    "internal_node_id": "0.0-17.0",
    "correct": false
  },
  {
    "rt": 230.43999999936204,
    "stimulus": "<h3>Throughout the entire ordeal, the hostages never appeared to lose hope.</p>",
    "button_pressed": 1,
    "make_sense": 1,
    "trial_type": "html-button-response",
    "trial_index": 18,
    "time_elapsed": 22043,
    "internal_node_id": "0.0-18.0",
    "correct": true
  },
  {
    "rt": 235.48000000300817,
    "stimulus": "<h3>Paul is afraid of heights and refuses to fly on a plane.</p>",
    "button_pressed": 1,
    "make_sense": 1,
    "trial_type": "html-button-response",
    "trial_index": 19,
    "time_elapsed": 22280,
    "internal_node_id": "0.0-19.0",
    "correct": true
  },
  {
    "rt": 287.4149999988731,
    "stimulus": "<h3>The young pencil kept his eyes closed until he was told to look.</p>",
    "button_pressed": 0,
    "make_sense": 0,
    "trial_type": "html-button-response",
    "trial_index": 20,
    "time_elapsed": 22569,
    "internal_node_id": "0.0-20.0",
    "correct": true
  },
  {
    "rt": 269.5499999972526,
    "stimulus": "<h3>Most people who laugh are concerned about controlling their weight.</p>",
    "button_pressed": 1,
    "make_sense": 0,
    "trial_type": "html-button-response",
    "trial_index": 21,
    "time_elapsed": 22840,
    "internal_node_id": "0.0-21.0",
    "correct": false
  },
  {
    "rt": 356.35000000183936,
    "stimulus": "<h3>When Lori shops she always looks for the lowest flood.</p>",
    "button_pressed": 0,
    "make_sense": 0,
    "trial_type": "html-button-response",
    "trial_index": 22,
    "time_elapsed": 23198,
    "internal_node_id": "0.0-22.0",
    "correct": true
  },
  {
    "rt": null,
    "stimulus": "8 bonnes réponses sur 15.",
    "key_press": null,
    "trial_type": "html-keyboard-response",
    "trial_index": 23,
    "time_elapsed": 26221,
    "internal_node_id": "0.0-23.0",
    "timeout_var": 2205.638155040056
  },
  {
    "view_history": "[{\"page_index\":0,\"viewing_time\":1517.9100000023027}]",
    "rt": 1518.2999999960884,
    "trial_type": "instructions",
    "trial_index": 24,
    "time_elapsed": 27769,
    "internal_node_id": "0.0-24.0"
  },
  {
    "rt": 2160.6600000013714,
    "stimulus": "<h3>Most people who laugh are concerned about controlling their weight.</p>",
    "button_pressed": 1,
    "make_sense": 0,
    "trial_type": "html-button-response",
    "trial_index": 25,
    "time_elapsed": 29931,
    "internal_node_id": "0.0-25.0",
    "correct": false
  },
  {
    "rt": null,
    "stimulus": "<h1>Q</h1>",
    "key_press": null,
    "trial_type": "html-keyboard-response",
    "trial_index": 26,
    "time_elapsed": 30937,
    "internal_node_id": "0.0-26.0"
  },
  {
    "rt": 526.850000002014,
    "stimulus": "<h3>When Lori shops she always looks for the lowest flood.</p>",
    "button_pressed": 0,
    "make_sense": 0,
    "trial_type": "html-button-response",
    "trial_index": 27,
    "time_elapsed": 31465,
    "internal_node_id": "0.0-27.0",
    "correct": true
  },
  {
    "rt": null,
    "stimulus": "<h1>H</h1>",
    "key_press": null,
    "trial_type": "html-keyboard-response",
    "trial_index": 28,
    "time_elapsed": 32472,
    "internal_node_id": "0.0-28.0"
  },
  {
    "rt": 3615.380000002915,
    "responses": "{\"response\":\"QH\"}",
    "correct_letters": "QH",
    "trial_type": "survey-html-form",
    "trial_index": 29,
    "time_elapsed": 36089,
    "internal_node_id": "0.0-29.0",
    "letters_recalled": "QH",
    "correct": true
  },
  {
    "rt": 1635.7050000005984,
    "stimulus": "<h3>We were fifty lawns out at sea before we lost sight of land.</p>",
    "button_pressed": 1,
    "make_sense": 0,
    "trial_type": "html-button-response",
    "trial_index": 30,
    "time_elapsed": 37727,
    "internal_node_id": "0.0-30.0",
    "correct": false
  },
  {
    "rt": null,
    "stimulus": "<h1>H</h1>",
    "key_press": null,
    "trial_type": "html-keyboard-response",
    "trial_index": 31,
    "time_elapsed": 38733,
    "internal_node_id": "0.0-31.0"
  },
  {
    "rt": 512.1500000022934,
    "stimulus": "<h3>The prosecutor's dish was lost because it was not based on fact.</p>",
    "button_pressed": 0,
    "make_sense": 0,
    "trial_type": "html-button-response",
    "trial_index": 32,
    "time_elapsed": 39247,
    "internal_node_id": "0.0-32.0",
    "correct": true
  },
  {
    "rt": null,
    "stimulus": "<h1>N</h1>",
    "key_press": null,
    "trial_type": "html-keyboard-response",
    "trial_index": 33,
    "time_elapsed": 40256,
    "internal_node_id": "0.0-33.0"
  },
  {
    "rt": 2283.0699999976787,
    "responses": "{\"response\":\"HN\"}",
    "correct_letters": "HN",
    "trial_type": "survey-html-form",
    "trial_index": 34,
    "time_elapsed": 42540,
    "internal_node_id": "0.0-34.0",
    "letters_recalled": "HN",
    "correct": true
  },
  {
    "rt": 1098.2249999942724,
    "stimulus": "<h3>The prosecutor's dish was lost because it was not based on fact.</p>",
    "button_pressed": 1,
    "make_sense": 0,
    "trial_type": "html-button-response",
    "trial_index": 35,
    "time_elapsed": 43640,
    "internal_node_id": "0.0-35.0",
    "correct": false
  },
  {
    "rt": null,
    "stimulus": "<h1>R</h1>",
    "key_press": null,
    "trial_type": "html-keyboard-response",
    "trial_index": 36,
    "time_elapsed": 44644,
    "internal_node_id": "0.0-36.0"
  },
  {
    "rt": 604.1100000002189,
    "stimulus": "<h3>The young pencil kept his eyes closed until he was told to look.</p>",
    "button_pressed": 0,
    "make_sense": 0,
    "trial_type": "html-button-response",
    "trial_index": 37,
    "time_elapsed": 45249,
    "internal_node_id": "0.0-37.0",
    "correct": true
  },
  {
    "rt": null,
    "stimulus": "<h1>Y</h1>",
    "key_press": null,
    "trial_type": "html-keyboard-response",
    "trial_index": 38,
    "time_elapsed": 46257,
    "internal_node_id": "0.0-38.0"
  },
  {
    "rt": 2667.905000002065,
    "responses": "{\"response\":\"RY\"}",
    "correct_letters": "RY",
    "trial_type": "survey-html-form",
    "trial_index": 39,
    "time_elapsed": 48926,
    "internal_node_id": "0.0-39.0",
    "letters_recalled": "RY",
    "correct": true
  },
  {
    "rt": 615.6199999968521,
    "stimulus": "<h3>When I get up in the morning, the first thing I do is feed my dog.</p>",
    "button_pressed": 1,
    "make_sense": 1,
    "trial_type": "html-button-response",
    "trial_index": 40,
    "time_elapsed": 49544,
    "internal_node_id": "0.0-40.0",
    "correct": true
  },
  {
    "rt": null,
    "stimulus": "<h1>R</h1>",
    "key_press": null,
    "trial_type": "html-keyboard-response",
    "trial_index": 41,
    "time_elapsed": 50557,
    "internal_node_id": "0.0-41.0"
  },
  {
    "rt": 1533.9349999994738,
    "stimulus": "<h3>After yelling at the game, I knew I would have a tall voice.</p>",
    "button_pressed": 1,
    "make_sense": 0,
    "trial_type": "html-button-response",
    "trial_index": 42,
    "time_elapsed": 52092,
    "internal_node_id": "0.0-42.0",
    "correct": false
  },
  {
    "rt": null,
    "stimulus": "<h1>Y</h1>",
    "key_press": null,
    "trial_type": "html-keyboard-response",
    "trial_index": 43,
    "time_elapsed": 53097,
    "internal_node_id": "0.0-43.0"
  },
  {
    "rt": null,
    "stimulus": "<h3>Mary was asked to stop at the new mall to pick up several items.</p>",
    "button_pressed": null,
    "make_sense": 1,
    "trial_type": "html-button-response",
    "trial_index": 44,
    "time_elapsed": 55318,
    "internal_node_id": "0.0-44.0",
    "correct": false
  },
  {
    "rt": null,
    "stimulus": "<h1>J</h1>",
    "key_press": null,
    "trial_type": "html-keyboard-response",
    "trial_index": 45,
    "time_elapsed": 56325,
    "internal_node_id": "0.0-45.0"
  },
  {
    "rt": null,
    "stimulus": "<h3>When it is cold, my mother always makes me wear a cap on my head.</p>",
    "button_pressed": null,
    "make_sense": 1,
    "trial_type": "html-button-response",
    "trial_index": 46,
    "time_elapsed": 58537,
    "internal_node_id": "0.0-46.0",
    "correct": false
  },
  {
    "rt": null,
    "stimulus": "<h1>F</h1>",
    "key_press": null,
    "trial_type": "html-keyboard-response",
    "trial_index": 47,
    "time_elapsed": 59546,
    "internal_node_id": "0.0-47.0"
  },
  {
    "rt": null,
    "stimulus": "<h3>All parents hope their list will grow up to be intelligent.</p>",
    "button_pressed": null,
    "make_sense": 0,
    "trial_type": "html-button-response",
    "trial_index": 48,
    "time_elapsed": 61753,
    "internal_node_id": "0.0-48.0",
    "correct": false
  },
  {
    "rt": null,
    "stimulus": "<h1>H</h1>",
    "key_press": null,
    "trial_type": "html-keyboard-response",
    "trial_index": 49,
    "time_elapsed": 62756,
    "internal_node_id": "0.0-49.0"
  },
  {
    "rt": 6678.444999997737,
    "responses": "{\"response\":\"RYJHN\"}",
    "correct_letters": "RY",
    "trial_type": "survey-html-form",
    "trial_index": 50,
    "time_elapsed": 69436,
    "internal_node_id": "0.0-50.0",
    "letters_recalled": "RYJHN",
    "correct": false
  },
  {
    "rt": null,
    "stimulus": "<h3>When John and Amy moved to Canada, their wish had a huge garage sale.</p>",
    "button_pressed": null,
    "make_sense": 0,
    "trial_type": "html-button-response",
    "trial_index": 51,
    "time_elapsed": 71649,
    "internal_node_id": "0.0-51.0",
    "correct": false
  },
  {
    "rt": null,
    "stimulus": "<h1>R</h1>",
    "key_press": null,
    "trial_type": "html-keyboard-response",
    "trial_index": 52,
    "time_elapsed": 72650,
    "internal_node_id": "0.0-52.0"
  },
  {
    "rt": 648.5050000046613,
    "stimulus": "<h3>In the fall, my gift and I love to work together in the yard.</p>",
    "button_pressed": 1,
    "make_sense": 0,
    "trial_type": "html-button-response",
    "trial_index": 53,
    "time_elapsed": 73300,
    "internal_node_id": "0.0-53.0",
    "correct": false
  },
  {
    "rt": null,
    "stimulus": "<h1>Y</h1>",
    "key_press": null,
    "trial_type": "html-keyboard-response",
    "trial_index": 54,
    "time_elapsed": 74313,
    "internal_node_id": "0.0-54.0"
  },
  {
    "rt": 536.9649999993271,
    "stimulus": "<h3>At church yesterday morning, Jim's daughter made a terrible plum.</p>",
    "button_pressed": 0,
    "make_sense": 0,
    "trial_type": "html-button-response",
    "trial_index": 55,
    "time_elapsed": 74851,
    "internal_node_id": "0.0-55.0",
    "correct": true
  },
  {
    "rt": null,
    "stimulus": "<h1>J</h1>",
    "key_press": null,
    "trial_type": "html-keyboard-response",
    "trial_index": 56,
    "time_elapsed": 75855,
    "internal_node_id": "0.0-56.0"
  },
  {
    "rt": 595.4300000012154,
    "stimulus": "<h3>Unaware of the hunter, the deer wandered into his shotgun range. </p>",
    "button_pressed": 1,
    "make_sense": 1,
    "trial_type": "html-button-response",
    "trial_index": 57,
    "time_elapsed": 76452,
    "internal_node_id": "0.0-57.0",
    "correct": true
  },
  {
    "rt": null,
    "stimulus": "<h1>F</h1>",
    "key_press": null,
    "trial_type": "html-keyboard-response",
    "trial_index": 58,
    "time_elapsed": 77462,
    "internal_node_id": "0.0-58.0"
  },
  {
    "rt": 4783.7799999979325,
    "responses": "{\"response\":\"YJQN\"}",
    "correct_letters": "RY",
    "trial_type": "survey-html-form",
    "trial_index": 59,
    "time_elapsed": 82247,
    "internal_node_id": "0.0-59.0",
    "letters_recalled": "YJQN",
    "correct": false
  },
  {
    "rt": 1670.7149999929243,
    "stimulus": "<h3>Since it was the last game, it was hard to cope with the loss.</p>",
    "button_pressed": 1,
    "make_sense": 1,
    "trial_type": "html-button-response",
    "trial_index": 60,
    "time_elapsed": 83920,
    "internal_node_id": "0.0-60.0",
    "correct": true
  },
  {
    "rt": null,
    "stimulus": "<h1>R</h1>",
    "key_press": null,
    "trial_type": "html-keyboard-response",
    "trial_index": 61,
    "time_elapsed": 84936,
    "internal_node_id": "0.0-61.0"
  },
  {
    "rt": 1341.244999995979,
    "stimulus": "<h3>Because she gets to knife early, Amy usually gets a good parking spot.</p>",
    "button_pressed": 1,
    "make_sense": 0,
    "trial_type": "html-button-response",
    "trial_index": 62,
    "time_elapsed": 86279,
    "internal_node_id": "0.0-62.0",
    "correct": false
  },
  {
    "rt": null,
    "stimulus": "<h1>Y</h1>",
    "key_press": null,
    "trial_type": "html-keyboard-response",
    "trial_index": 63,
    "time_elapsed": 87287,
    "internal_node_id": "0.0-63.0"
  },
  {
    "rt": 731.0549999965588,
    "stimulus": "<h3>The only furniture Steve had in his first bowl was his waterbed.</p>",
    "button_pressed": 0,
    "make_sense": 0,
    "trial_type": "html-button-response",
    "trial_index": 64,
    "time_elapsed": 88020,
    "internal_node_id": "0.0-64.0",
    "correct": true
  },
  {
    "rt": null,
    "stimulus": "<h1>J</h1>",
    "key_press": null,
    "trial_type": "html-keyboard-response",
    "trial_index": 65,
    "time_elapsed": 89030,
    "internal_node_id": "0.0-65.0"
  },
  {
    "rt": 1251.8649999983609,
    "stimulus": "<h3>Last year, Mike was given detention for running in the hall.</p>",
    "button_pressed": 1,
    "make_sense": 1,
    "trial_type": "html-button-response",
    "trial_index": 66,
    "time_elapsed": 90283,
    "internal_node_id": "0.0-66.0",
    "correct": true
  },
  {
    "rt": null,
    "stimulus": "<h1>F</h1>",
    "key_press": null,
    "trial_type": "html-keyboard-response",
    "trial_index": 67,
    "time_elapsed": 91296,
    "internal_node_id": "0.0-67.0"
  },
  {
    "rt": 1582.8249999976833,
    "stimulus": "<h3>The huge clouds covered the morning slide and the rain began to fall.</p>",
    "button_pressed": 0,
    "make_sense": 0,
    "trial_type": "html-button-response",
    "trial_index": 68,
    "time_elapsed": 92880,
    "internal_node_id": "0.0-68.0",
    "correct": true
  },
  {
    "rt": null,
    "stimulus": "<h1>H</h1>",
    "key_press": null,
    "trial_type": "html-keyboard-response",
    "trial_index": 69,
    "time_elapsed": 93882,
    "internal_node_id": "0.0-69.0"
  },
  {
    "rt": 2831.740000001446,
    "responses": "{\"response\":\"PQNJ\"}",
    "correct_letters": "RY",
    "trial_type": "survey-html-form",
    "trial_index": 70,
    "time_elapsed": 96715,
    "internal_node_id": "0.0-70.0",
    "letters_recalled": "PQNJ",
    "correct": false
  },
  {
    "rt": null,
    "stimulus": "<h3>After one date I knew that Linda's sister simply was not my type.</p>",
    "button_pressed": null,
    "make_sense": 1,
    "trial_type": "html-button-response",
    "trial_index": 71,
    "time_elapsed": 98924,
    "internal_node_id": "0.0-71.0",
    "correct": false
  },
  {
    "rt": null,
    "stimulus": "<h1>R</h1>",
    "key_press": null,
    "trial_type": "html-keyboard-response",
    "trial_index": 72,
    "time_elapsed": 99936,
    "internal_node_id": "0.0-72.0"
  },
  {
    "rt": 1028.7400000015623,
    "stimulus": "<h3>Jason broke his arm when he fell from the tree onto the ground. </p>",
    "button_pressed": 1,
    "make_sense": 1,
    "trial_type": "html-button-response",
    "trial_index": 73,
    "time_elapsed": 100966,
    "internal_node_id": "0.0-73.0",
    "correct": true
  },
  {
    "rt": null,
    "stimulus": "<h1>Y</h1>",
    "key_press": null,
    "trial_type": "html-keyboard-response",
    "trial_index": 74,
    "time_elapsed": 101972,
    "internal_node_id": "0.0-74.0"
  },
  {
    "rt": 815.9749999977066,
    "stimulus": "<h3>Most people agree that Monday is the worst stick of the week.</p>",
    "button_pressed": 0,
    "make_sense": 0,
    "trial_type": "html-button-response",
    "trial_index": 75,
    "time_elapsed": 102789,
    "internal_node_id": "0.0-75.0",
    "correct": true
  },
  {
    "rt": null,
    "stimulus": "<h1>J</h1>",
    "key_press": null,
    "trial_type": "html-keyboard-response",
    "trial_index": 76,
    "time_elapsed": 103791,
    "internal_node_id": "0.0-76.0"
  },
  {
    "rt": 1296.2100000004284,
    "stimulus": "<h3>On warm sunny afternoons, I like to walk in the park.</p>",
    "button_pressed": 1,
    "make_sense": 1,
    "trial_type": "html-button-response",
    "trial_index": 77,
    "time_elapsed": 105089,
    "internal_node_id": "0.0-77.0",
    "correct": true
  },
  {
    "rt": null,
    "stimulus": "<h1>F</h1>",
    "key_press": null,
    "trial_type": "html-keyboard-response",
    "trial_index": 78,
    "time_elapsed": 106095,
    "internal_node_id": "0.0-78.0"
  },
  {
    "rt": 1108.379999997851,
    "stimulus": "<h3>With intense determination he overcame all obstacles and won the race.</p>",
    "button_pressed": 0,
    "make_sense": 1,
    "trial_type": "html-button-response",
    "trial_index": 79,
    "time_elapsed": 107205,
    "internal_node_id": "0.0-79.0",
    "correct": false
  },
  {
    "rt": null,
    "stimulus": "<h1>H</h1>",
    "key_press": null,
    "trial_type": "html-keyboard-response",
    "trial_index": 80,
    "time_elapsed": 108219,
    "internal_node_id": "0.0-80.0"
  },
  {
    "rt": 1647.994999999355,
    "stimulus": "<h3>A person should never be discriminated against based on his race.</p>",
    "button_pressed": 1,
    "make_sense": 1,
    "trial_type": "html-button-response",
    "trial_index": 81,
    "time_elapsed": 109868,
    "internal_node_id": "0.0-81.0",
    "correct": true
  },
  {
    "rt": null,
    "stimulus": "<h1>P</h1>",
    "key_press": null,
    "trial_type": "html-keyboard-response",
    "trial_index": 82,
    "time_elapsed": 110878,
    "internal_node_id": "0.0-82.0"
  },
  {
    "rt": 2692.9350000064005,
    "responses": "{\"response\":\"LHHK\"}",
    "correct_letters": "RY",
    "trial_type": "survey-html-form",
    "trial_index": 83,
    "time_elapsed": 113572,
    "internal_node_id": "0.0-83.0",
    "letters_recalled": "LHHK",
    "correct": false
  },
  {
    "rt": null,
    "stimulus": "<h3>My mother has always told me that it is not polite to shine.</p>",
    "button_pressed": null,
    "make_sense": 0,
    "trial_type": "html-button-response",
    "trial_index": 84,
    "time_elapsed": 115779,
    "internal_node_id": "0.0-84.0",
    "correct": false
  },
  {
    "rt": null,
    "stimulus": "<h1>R</h1>",
    "key_press": null,
    "trial_type": "html-keyboard-response",
    "trial_index": 85,
    "time_elapsed": 116786,
    "internal_node_id": "0.0-85.0"
  },
  {
    "rt": 668.8650000069174,
    "stimulus": "<h3>The lemonade players decided to play two out of three sets.</p>",
    "button_pressed": 1,
    "make_sense": 0,
    "trial_type": "html-button-response",
    "trial_index": 86,
    "time_elapsed": 117456,
    "internal_node_id": "0.0-86.0",
    "correct": false
  },
  {
    "rt": null,
    "stimulus": "<h1>Y</h1>",
    "key_press": null,
    "trial_type": "html-keyboard-response",
    "trial_index": 87,
    "time_elapsed": 118464,
    "internal_node_id": "0.0-87.0"
  },
  {
    "rt": 322.94000000547385,
    "stimulus": "<h3>Raising children requires a lot of dust and the ability to be firm.</p>",
    "button_pressed": 0,
    "make_sense": 0,
    "trial_type": "html-button-response",
    "trial_index": 88,
    "time_elapsed": 118787,
    "internal_node_id": "0.0-88.0",
    "correct": true
  },
  {
    "rt": null,
    "stimulus": "<h1>J</h1>",
    "key_press": null,
    "trial_type": "html-keyboard-response",
    "trial_index": 89,
    "time_elapsed": 119801,
    "internal_node_id": "0.0-89.0"
  },
  {
    "rt": 330.9799999988172,
    "stimulus": "<h3>The gathering crowd turned to look when they heard the gun shot.</p>",
    "button_pressed": 1,
    "make_sense": 1,
    "trial_type": "html-button-response",
    "trial_index": 90,
    "time_elapsed": 120133,
    "internal_node_id": "0.0-90.0",
    "correct": true
  },
  {
    "rt": null,
    "stimulus": "<h1>F</h1>",
    "key_press": null,
    "trial_type": "html-keyboard-response",
    "trial_index": 91,
    "time_elapsed": 121143,
    "internal_node_id": "0.0-91.0"
  },
  {
    "rt": 2738.3150000023306,
    "responses": "{\"response\":\"HLFPK\"}",
    "correct_letters": "RY",
    "trial_type": "survey-html-form",
    "trial_index": 92,
    "time_elapsed": 123883,
    "internal_node_id": "0.0-92.0",
    "letters_recalled": "HLFPK",
    "correct": false
  },
  {
    "rt": 1226.184999999532,
    "stimulus": "<h3>As soon as I get done taking this envy I am going to go home.</p>",
    "button_pressed": 1,
    "make_sense": 0,
    "trial_type": "html-button-response",
    "trial_index": 93,
    "time_elapsed": 125110,
    "internal_node_id": "0.0-93.0",
    "correct": false
  },
  {
    "rt": null,
    "stimulus": "<h1>R</h1>",
    "key_press": null,
    "trial_type": "html-keyboard-response",
    "trial_index": 94,
    "time_elapsed": 126114,
    "internal_node_id": "0.0-94.0"
  },
  {
    "rt": 1315.6400000007125,
    "stimulus": "<h3>Sue opened her purse and found she did not have any money.</p>",
    "button_pressed": 0,
    "make_sense": 1,
    "trial_type": "html-button-response",
    "trial_index": 95,
    "time_elapsed": 127430,
    "internal_node_id": "0.0-95.0",
    "correct": false
  },
  {
    "rt": null,
    "stimulus": "<h1>Y</h1>",
    "key_press": null,
    "trial_type": "html-keyboard-response",
    "trial_index": 96,
    "time_elapsed": 128442,
    "internal_node_id": "0.0-96.0"
  },
  {
    "rt": 1243.0600000006962,
    "stimulus": "<h3>Jill wanted a garden in her backyard, but the soil was mostly clay.</p>",
    "button_pressed": 1,
    "make_sense": 1,
    "trial_type": "html-button-response",
    "trial_index": 97,
    "time_elapsed": 129686,
    "internal_node_id": "0.0-97.0",
    "correct": true
  },
  {
    "rt": null,
    "stimulus": "<h1>J</h1>",
    "key_press": null,
    "trial_type": "html-keyboard-response",
    "trial_index": 98,
    "time_elapsed": 130689,
    "internal_node_id": "0.0-98.0"
  },
  {
    "rt": 1152.410000002419,
    "stimulus": "<h3>Stacey stopped dating the light when she found out he had a wife.</p>",
    "button_pressed": 0,
    "make_sense": 0,
    "trial_type": "html-button-response",
    "trial_index": 99,
    "time_elapsed": 131842,
    "internal_node_id": "0.0-99.0",
    "correct": true
  },
  {
    "rt": null,
    "stimulus": "<h1>F</h1>",
    "key_press": null,
    "trial_type": "html-keyboard-response",
    "trial_index": 100,
    "time_elapsed": 132846,
    "internal_node_id": "0.0-100.0"
  },
  {
    "rt": 823.0899999980466,
    "stimulus": "<h3>I told the class that they would get a surprise if they were orange.</p>",
    "button_pressed": 1,
    "make_sense": 0,
    "trial_type": "html-button-response",
    "trial_index": 101,
    "time_elapsed": 133670,
    "internal_node_id": "0.0-101.0",
    "correct": false
  },
  {
    "rt": null,
    "stimulus": "<h1>H</h1>",
    "key_press": null,
    "trial_type": "html-keyboard-response",
    "trial_index": 102,
    "time_elapsed": 134680,
    "internal_node_id": "0.0-102.0"
  },
  {
    "rt": 956.1549999998533,
    "stimulus": "<h3>Jim was so tired of studying, he could not read another page.</p>",
    "button_pressed": 0,
    "make_sense": 1,
    "trial_type": "html-button-response",
    "trial_index": 103,
    "time_elapsed": 135637,
    "internal_node_id": "0.0-103.0",
    "correct": false
  },
  {
    "rt": null,
    "stimulus": "<h1>P</h1>",
    "key_press": null,
    "trial_type": "html-keyboard-response",
    "trial_index": 104,
    "time_elapsed": 136639,
    "internal_node_id": "0.0-104.0"
  },
  {
    "rt": 4952.7950000046985,
    "responses": "{\"response\":\"QFTLP\"}",
    "correct_letters": "RY",
    "trial_type": "survey-html-form",
    "trial_index": 105,
    "time_elapsed": 141594,
    "internal_node_id": "0.0-105.0",
    "letters_recalled": "QFTLP",
    "correct": false
  }
]