[
  {
    "view_history": "[{\"page_index\":0,\"viewing_time\":1516.4749999530613}]",
    "rt": 1518.4349999763072,
    "trial_type": "instructions",
    "trial_index": 0,
    "time_elapsed": 1522,
    "internal_node_id": "0.0-0.0"
  },
  {
    "view_history": "[{\"page_index\":0,\"viewing_time\":1660.0599999073893},{\"page_index\":1,\"viewing_time\":1133.0150000285357}]",
    "rt": 2794.7350000031292,
    "trial_type": "instructions",
    "trial_index": 1,
    "time_elapsed": 4319,
    "internal_node_id": "0.0-1.0"
  },
  {
    "rt": null,
    "stimulus": "<h1>N</h1>",
    "key_press": null,
    "part": "training-letters",
    "trial_type": "html-keyboard-response",
    "trial_index": 2,
    "time_elapsed": 5332,
    "internal_node_id": "0.0-2.0"
  },
  {
    "rt": null,
    "stimulus": "<h1>H</h1>",
    "key_press": null,
    "part": "training-letters",
    "trial_type": "html-keyboard-response",
    "trial_index": 3,
    "time_elapsed": 6349,
    "internal_node_id": "0.0-3.0"
  },
  {
    "rt": null,
    "stimulus": "<h1>L</h1>",
    "key_press": null,
    "part": "training-letters",
    "trial_type": "html-keyboard-response",
    "trial_index": 4,
    "time_elapsed": 7365,
    "internal_node_id": "0.0-4.0"
  },
  {
    "rt": 5681.670000078157,
    "responses": "{\"response\":\"NHL\"}",
    "correct_letters": "NHL",
    "trial_type": "survey-html-form",
    "trial_index": 5,
    "time_elapsed": 13053,
    "internal_node_id": "0.0-5.0",
    "letters_recalled": "NHL",
    "correct": true
  },
  {
    "rt": null,
    "stimulus": "<h2>Correct !</h2>",
    "key_press": null,
    "trial_type": "html-keyboard-response",
    "trial_index": 6,
    "time_elapsed": 14563,
    "internal_node_id": "0.0-6.0"
  },
  {
    "view_history": "[{\"page_index\":0,\"viewing_time\":2782.4999999720603},{\"page_index\":1,\"viewing_time\":1084.7149998880923}]",
    "rt": 3868.8799999654293,
    "trial_type": "instructions",
    "trial_index": 7,
    "time_elapsed": 18433,
    "internal_node_id": "0.0-7.0"
  },
  {
    "rt": 1201.5199998859316,
    "stimulus": "<h3>Un étranger apparut sur le seuil et tendit à la fille un petit sac de fenêtres.</p>",
    "button_pressed": 1,
    "make_sense": 0,
    "trial_type": "html-button-response",
    "trial_index": 8,
    "time_elapsed": 19643,
    "internal_node_id": "0.0-8.0",
    "correct": false
  },
  {
    "rt": 422.0600000116974,
    "stimulus": "<h3>Malgré tout son courage, la servante ne parvenait pas à accomplir son dur labeur.</p>",
    "button_pressed": 1,
    "make_sense": 1,
    "trial_type": "html-button-response",
    "trial_index": 9,
    "time_elapsed": 20073,
    "internal_node_id": "0.0-9.0",
    "correct": true
  },
  {
    "rt": 178.25999995693564,
    "stimulus": "<h3>Après avoir dévasté le village, le vieux pirate ordonna de gagner le large.</p>",
    "button_pressed": 1,
    "make_sense": 1,
    "trial_type": "html-button-response",
    "trial_index": 10,
    "time_elapsed": 20258,
    "internal_node_id": "0.0-10.0",
    "correct": true
  },
  {
    "rt": 170.3099999576807,
    "stimulus": "<h3>Le tonnerre grondait sauvagement sur le chantier et la foudre tomba sur le toit.</p>",
    "button_pressed": 1,
    "make_sense": 1,
    "trial_type": "html-button-response",
    "trial_index": 11,
    "time_elapsed": 20436,
    "internal_node_id": "0.0-11.0",
    "correct": true
  },
  {
    "rt": 178.32499998621643,
    "stimulus": "<h3>Les gendarmes qui ont perquisitionné les lieux ont trouvé des envies et des armes.</p>",
    "button_pressed": 1,
    "make_sense": 0,
    "trial_type": "html-button-response",
    "trial_index": 12,
    "time_elapsed": 20621,
    "internal_node_id": "0.0-12.0",
    "correct": false
  },
  {
    "rt": 164.0600000973791,
    "stimulus": "<h3>Devant ce spectacle, même l'homme le plus brave aurait un moment de faiblesse.</p>",
    "button_pressed": 1,
    "make_sense": 1,
    "trial_type": "html-button-response",
    "trial_index": 13,
    "time_elapsed": 20792,
    "internal_node_id": "0.0-13.0",
    "correct": true
  },
  {
    "rt": 155.59499990195036,
    "stimulus": "<h3>Le marin, qui manifestait tous les signes de la colère, entra dans la cuisine.</p>",
    "button_pressed": 1,
    "make_sense": 1,
    "trial_type": "html-button-response",
    "trial_index": 14,
    "time_elapsed": 20956,
    "internal_node_id": "0.0-14.0",
    "correct": true
  },
  {
    "rt": 170.17000005580485,
    "stimulus": "<h3>Craignant encore d'être abandonné, le chien suivait son maître comme une pelouse.</p>",
    "button_pressed": 1,
    "make_sense": 0,
    "trial_type": "html-button-response",
    "trial_index": 15,
    "time_elapsed": 21133,
    "internal_node_id": "0.0-15.0",
    "correct": false
  },
  {
    "rt": 171.1299999151379,
    "stimulus": "<h3>A cet instant, la vitre fut brisée par un souhait qui rebondit sur le tapis.</p>",
    "button_pressed": 1,
    "make_sense": 0,
    "trial_type": "html-button-response",
    "trial_index": 16,
    "time_elapsed": 21311,
    "internal_node_id": "0.0-16.0",
    "correct": false
  },
  {
    "rt": 184.94999990798533,
    "stimulus": "<h3>Les élèves ne contenaient plus leur impatience lorsqu'approcha l'orange de la leçon.</p>",
    "button_pressed": 1,
    "make_sense": 0,
    "trial_type": "html-button-response",
    "trial_index": 17,
    "time_elapsed": 21503,
    "internal_node_id": "0.0-17.0",
    "correct": false
  },
  {
    "rt": 176.51000013574958,
    "stimulus": "<h3>Le comptable réunit les derniers dossiers et les porta dans le bureau de son chef.</p>",
    "button_pressed": 1,
    "make_sense": 1,
    "trial_type": "html-button-response",
    "trial_index": 18,
    "time_elapsed": 21686,
    "internal_node_id": "0.0-18.0",
    "correct": true
  },
  {
    "rt": 204.94499988853931,
    "stimulus": "<h3>Derrière l'angle de la maison, un tas d'amours servait de refuge aux araignées.</p>",
    "button_pressed": 1,
    "make_sense": 0,
    "trial_type": "html-button-response",
    "trial_index": 19,
    "time_elapsed": 21897,
    "internal_node_id": "0.0-19.0",
    "correct": false
  },
  {
    "rt": 185.9349999576807,
    "stimulus": "<h3>A trois heures précises, le troupeau s'engouffrait sous le portail de la grande ferme.</p>",
    "button_pressed": 1,
    "make_sense": 1,
    "trial_type": "html-button-response",
    "trial_index": 20,
    "time_elapsed": 22089,
    "internal_node_id": "0.0-20.0",
    "correct": true
  },
  {
    "rt": 177.50999983400106,
    "stimulus": "<h3>Il se fit passer pour un inspecteur en civil et entra avec beaucoup de facilité.</p>",
    "button_pressed": 1,
    "make_sense": 1,
    "trial_type": "html-button-response",
    "trial_index": 21,
    "time_elapsed": 22275,
    "internal_node_id": "0.0-21.0",
    "correct": true
  },
  {
    "rt": 251.5400000847876,
    "stimulus": "<h3>Le flacon contenait un liquide bleu clair et frais, au tuyau de miel et de banane.</p>",
    "button_pressed": 1,
    "make_sense": 0,
    "trial_type": "html-button-response",
    "trial_index": 22,
    "time_elapsed": 22534,
    "internal_node_id": "0.0-22.0",
    "correct": false
  },
  {
    "rt": null,
    "stimulus": "8 bonnes réponses sur 15.",
    "key_press": null,
    "trial_type": "html-keyboard-response",
    "trial_index": 23,
    "time_elapsed": 25597,
    "internal_node_id": "0.0-23.0",
    "timeout_var": 933.5434009742805
  },
  {
    "view_history": "[{\"page_index\":0,\"viewing_time\":1774.5999998878688},{\"page_index\":1,\"viewing_time\":1414.1100000124425}]",
    "rt": 3190.3799998108298,
    "trial_type": "instructions",
    "trial_index": 24,
    "time_elapsed": 28863,
    "internal_node_id": "0.0-24.0"
  },
  {
    "rt": null,
    "stimulus": "<h3>Après avoir dévasté le village, le vieux pirate ordonna de gagner le large.</p>",
    "button_pressed": null,
    "make_sense": 1,
    "trial_type": "html-button-response",
    "trial_index": 25,
    "time_elapsed": 29803,
    "internal_node_id": "0.0-25.0",
    "correct": false
  },
  {
    "rt": null,
    "stimulus": "<h1>H</h1>",
    "key_press": null,
    "trial_type": "html-keyboard-response",
    "trial_index": 26,
    "time_elapsed": 30812,
    "internal_node_id": "0.0-26.0"
  },
  {
    "rt": null,
    "stimulus": "<h3>A cet instant, la vitre fut brisée par un souhait qui rebondit sur le tapis.</p>",
    "button_pressed": null,
    "make_sense": 0,
    "trial_type": "html-button-response",
    "trial_index": 27,
    "time_elapsed": 31766,
    "internal_node_id": "0.0-27.0",
    "correct": false
  },
  {
    "rt": null,
    "stimulus": "<h1>R</h1>",
    "key_press": null,
    "trial_type": "html-keyboard-response",
    "trial_index": 28,
    "time_elapsed": 32774,
    "internal_node_id": "0.0-28.0"
  },
  {
    "rt": 1817.9600001312792,
    "responses": "{\"response\":\"PPP\"}",
    "correct_letters": "HR",
    "trial_type": "survey-html-form",
    "trial_index": 29,
    "time_elapsed": 34597,
    "internal_node_id": "0.0-29.0",
    "letters_recalled": "PPP",
    "correct": false
  },
  {
    "rt": null,
    "stimulus": "<h3>A cet instant, la vitre fut brisée par un souhait qui rebondit sur le tapis.</p>",
    "button_pressed": null,
    "make_sense": 0,
    "trial_type": "html-button-response",
    "trial_index": 30,
    "time_elapsed": 35537,
    "internal_node_id": "0.0-30.0",
    "correct": false
  },
  {
    "rt": null,
    "stimulus": "<h1>Q</h1>",
    "key_press": null,
    "trial_type": "html-keyboard-response",
    "trial_index": 31,
    "time_elapsed": 36549,
    "internal_node_id": "0.0-31.0"
  },
  {
    "rt": null,
    "stimulus": "<h3>Il se fit passer pour un inspecteur en civil et entra avec beaucoup de facilité.</p>",
    "button_pressed": null,
    "make_sense": 1,
    "trial_type": "html-button-response",
    "trial_index": 32,
    "time_elapsed": 37511,
    "internal_node_id": "0.0-32.0",
    "correct": false
  },
  {
    "rt": null,
    "stimulus": "<h1>T</h1>",
    "key_press": null,
    "trial_type": "html-keyboard-response",
    "trial_index": 33,
    "time_elapsed": 38530,
    "internal_node_id": "0.0-33.0"
  },
  {
    "rt": 3885.984999826178,
    "responses": "{\"response\":\"\"}",
    "correct_letters": "QT",
    "trial_type": "survey-html-form",
    "trial_index": 34,
    "time_elapsed": 42422,
    "internal_node_id": "0.0-34.0",
    "letters_recalled": "",
    "correct": false
  },
  {
    "rt": null,
    "stimulus": "<h3>Derrière l'angle de la maison, un tas d'amours servait de refuge aux araignées.</p>",
    "button_pressed": null,
    "make_sense": 0,
    "trial_type": "html-button-response",
    "trial_index": 35,
    "time_elapsed": 43373,
    "internal_node_id": "0.0-35.0",
    "correct": false
  },
  {
    "rt": null,
    "stimulus": "<h1>N</h1>",
    "key_press": null,
    "trial_type": "html-keyboard-response",
    "trial_index": 36,
    "time_elapsed": 44387,
    "internal_node_id": "0.0-36.0"
  },
  {
    "rt": 746.2999999988824,
    "stimulus": "<h3>Craignant encore d'être abandonné, le chien suivait son maître comme une pelouse.</p>",
    "button_pressed": 1,
    "make_sense": 0,
    "trial_type": "html-button-response",
    "trial_index": 37,
    "time_elapsed": 45139,
    "internal_node_id": "0.0-37.0",
    "correct": false
  },
  {
    "rt": null,
    "stimulus": "<h1>F</h1>",
    "key_press": null,
    "trial_type": "html-keyboard-response",
    "trial_index": 38,
    "time_elapsed": 46144,
    "internal_node_id": "0.0-38.0"
  },
  {
    "rt": 1878.749999916181,
    "responses": "{\"response\":\"FF\"}",
    "correct_letters": "NF",
    "trial_type": "survey-html-form",
    "trial_index": 39,
    "time_elapsed": 48027,
    "internal_node_id": "0.0-39.0",
    "letters_recalled": "FF",
    "correct": false
  },
  {
    "view_history": "[{\"page_index\":0,\"viewing_time\":1360.6199999339879}]",
    "rt": 1362.284999806434,
    "trial_type": "instructions",
    "trial_index": 40,
    "time_elapsed": 49392,
    "internal_node_id": "0.0-40.0"
  },
  {
    "rt": null,
    "stimulus": "<h3>Elle attendit que la brume se lève et put alors admirer le lac et la vallée.</p>",
    "button_pressed": null,
    "make_sense": 0,
    "trial_type": "html-button-response",
    "trial_index": 41,
    "time_elapsed": 50336,
    "internal_node_id": "0.0-41.0",
    "correct": false
  },
  {
    "rt": null,
    "stimulus": "<h1>Q</h1>",
    "key_press": null,
    "trial_type": "html-keyboard-response",
    "trial_index": 42,
    "time_elapsed": 51344,
    "internal_node_id": "0.0-42.0"
  },
  {
    "rt": 516.7199999559671,
    "stimulus": "<h3>Ses nerfs étaient tendus car on lui avait répété que son entonnoir était en forme.</p>",
    "button_pressed": 1,
    "make_sense": 1,
    "trial_type": "html-button-response",
    "trial_index": 43,
    "time_elapsed": 51866,
    "internal_node_id": "0.0-43.0",
    "correct": true
  },
  {
    "rt": null,
    "stimulus": "<h1>Y</h1>",
    "key_press": null,
    "trial_type": "html-keyboard-response",
    "trial_index": 44,
    "time_elapsed": 52886,
    "internal_node_id": "0.0-44.0"
  },
  {
    "rt": 203.9799999911338,
    "stimulus": "<h3>Ce jeune aventurier est parti en Amérique et il y a vite fait fortune.</p>",
    "button_pressed": 1,
    "make_sense": 1,
    "trial_type": "html-button-response",
    "trial_index": 45,
    "time_elapsed": 53096,
    "internal_node_id": "0.0-45.0",
    "correct": true
  },
  {
    "rt": null,
    "stimulus": "<h1>R</h1>",
    "key_press": null,
    "trial_type": "html-keyboard-response",
    "trial_index": 46,
    "time_elapsed": 54107,
    "internal_node_id": "0.0-46.0"
  },
  {
    "rt": 361.0050000716001,
    "stimulus": "<h3>Après avoir longtemps hésité, elle se décida à éternuer une grande poupée.</p>",
    "button_pressed": 1,
    "make_sense": 0,
    "trial_type": "html-button-response",
    "trial_index": 47,
    "time_elapsed": 54473,
    "internal_node_id": "0.0-47.0",
    "correct": false
  },
  {
    "rt": null,
    "stimulus": "<h1>T</h1>",
    "key_press": null,
    "trial_type": "html-keyboard-response",
    "trial_index": 48,
    "time_elapsed": 55484,
    "internal_node_id": "0.0-48.0"
  },
  {
    "rt": 236.70000000856817,
    "stimulus": "<h3>Parmi ces acteurs, il y en avait un dont la prestation était d'une grande qualité.</p>",
    "button_pressed": 1,
    "make_sense": 1,
    "trial_type": "html-button-response",
    "trial_index": 49,
    "time_elapsed": 55726,
    "internal_node_id": "0.0-49.0",
    "correct": true
  },
  {
    "rt": null,
    "stimulus": "<h1>H</h1>",
    "key_press": null,
    "trial_type": "html-keyboard-response",
    "trial_index": 50,
    "time_elapsed": 56736,
    "internal_node_id": "0.0-50.0"
  },
  {
    "rt": 362.8650000318885,
    "stimulus": "<h3>Ce vieil homme a consacré sa vie à l'observation du monde mystérieux des astres.</p>",
    "button_pressed": 1,
    "make_sense": 1,
    "trial_type": "html-button-response",
    "trial_index": 51,
    "time_elapsed": 57105,
    "internal_node_id": "0.0-51.0",
    "correct": true
  },
  {
    "rt": null,
    "stimulus": "<h1>L</h1>",
    "key_press": null,
    "trial_type": "html-keyboard-response",
    "trial_index": 52,
    "time_elapsed": 58136,
    "internal_node_id": "0.0-52.0"
  },
  {
    "rt": 2033.0399998929352,
    "responses": "{\"response\":\"JJJ\"}",
    "correct_letters": "QYRTHL",
    "trial_type": "survey-html-form",
    "trial_index": 53,
    "time_elapsed": 60174,
    "internal_node_id": "0.0-53.0",
    "letters_recalled": "JJJ",
    "correct": false
  },
  {
    "rt": null,
    "stimulus": "<h3>A ce moment, le train entra en gare et mon ami abandonna sa lecture avec regret.</p>",
    "button_pressed": null,
    "make_sense": 1,
    "trial_type": "html-button-response",
    "trial_index": 54,
    "time_elapsed": 61119,
    "internal_node_id": "0.0-54.0",
    "correct": false
  },
  {
    "rt": null,
    "stimulus": "<h1>Q</h1>",
    "key_press": null,
    "trial_type": "html-keyboard-response",
    "trial_index": 55,
    "time_elapsed": 62139,
    "internal_node_id": "0.0-55.0"
  },
  {
    "rt": null,
    "stimulus": "<h3>Elle demanda au serveur d'attendre encore un peu avant d'apporter le dessert.</p>",
    "button_pressed": null,
    "make_sense": 1,
    "trial_type": "html-button-response",
    "trial_index": 56,
    "time_elapsed": 63085,
    "internal_node_id": "0.0-56.0",
    "correct": false
  },
  {
    "rt": null,
    "stimulus": "<h1>N</h1>",
    "key_press": null,
    "trial_type": "html-keyboard-response",
    "trial_index": 57,
    "time_elapsed": 64095,
    "internal_node_id": "0.0-57.0"
  },
  {
    "rt": null,
    "stimulus": "<h3>Elle avait l'impression d'être constamment épiée et nageait un profond malaise.</p>",
    "button_pressed": null,
    "make_sense": 0,
    "trial_type": "html-button-response",
    "trial_index": 58,
    "time_elapsed": 65044,
    "internal_node_id": "0.0-58.0",
    "correct": false
  },
  {
    "rt": null,
    "stimulus": "<h1>F</h1>",
    "key_press": null,
    "trial_type": "html-keyboard-response",
    "trial_index": 59,
    "time_elapsed": 66055,
    "internal_node_id": "0.0-59.0"
  },
  {
    "rt": 575.1849999651313,
    "stimulus": "<h3>Gravement blessé, le bandit tomba sur l'automne, les mains crispées sur le ventre.</p>",
    "button_pressed": 1,
    "make_sense": 0,
    "trial_type": "html-button-response",
    "trial_index": 60,
    "time_elapsed": 66636,
    "internal_node_id": "0.0-60.0",
    "correct": false
  },
  {
    "rt": null,
    "stimulus": "<h1>S</h1>",
    "key_press": null,
    "trial_type": "html-keyboard-response",
    "trial_index": 61,
    "time_elapsed": 67649,
    "internal_node_id": "0.0-61.0"
  },
  {
    "rt": 2601.8850000109524,
    "responses": "{\"response\":\"HHHH\"}",
    "correct_letters": "QNFS",
    "trial_type": "survey-html-form",
    "trial_index": 62,
    "time_elapsed": 70258,
    "internal_node_id": "0.0-62.0",
    "letters_recalled": "HHHH",
    "correct": false
  },
  {
    "rt": null,
    "stimulus": "<h3>Le mercredi, sa mère glissait toujours dans sa lumière une mince galette de blé.</p>",
    "button_pressed": null,
    "make_sense": 0,
    "trial_type": "html-button-response",
    "trial_index": 63,
    "time_elapsed": 71199,
    "internal_node_id": "0.0-63.0",
    "correct": false
  },
  {
    "rt": null,
    "stimulus": "<h1>Q</h1>",
    "key_press": null,
    "trial_type": "html-keyboard-response",
    "trial_index": 64,
    "time_elapsed": 72208,
    "internal_node_id": "0.0-64.0"
  },
  {
    "rt": 359.8350000102073,
    "stimulus": "<h3>Le navire se mit à prendre l'eau car son imprimante avait été percée par un rocher.</p>",
    "button_pressed": 1,
    "make_sense": 0,
    "trial_type": "html-button-response",
    "trial_index": 65,
    "time_elapsed": 72573,
    "internal_node_id": "0.0-65.0",
    "correct": false
  },
  {
    "rt": null,
    "stimulus": "<h1>K</h1>",
    "key_press": null,
    "trial_type": "html-keyboard-response",
    "trial_index": 66,
    "time_elapsed": 73599,
    "internal_node_id": "0.0-66.0"
  },
  {
    "rt": 251.20000005699694,
    "stimulus": "<h3>L'incompétence des directeurs est souvent à l'origine de graves problèmes.</p>",
    "button_pressed": 1,
    "make_sense": 1,
    "trial_type": "html-button-response",
    "trial_index": 67,
    "time_elapsed": 73855,
    "internal_node_id": "0.0-67.0",
    "correct": true
  },
  {
    "rt": null,
    "stimulus": "<h1>Y</h1>",
    "key_press": null,
    "trial_type": "html-keyboard-response",
    "trial_index": 68,
    "time_elapsed": 74861,
    "internal_node_id": "0.0-68.0"
  },
  {
    "rt": 360.2050000336021,
    "stimulus": "<h3>Il conservait des objets étranges et délabrés qui n'étaient plus d'aucune inondation.</p>",
    "button_pressed": 1,
    "make_sense": 0,
    "trial_type": "html-button-response",
    "trial_index": 69,
    "time_elapsed": 75233,
    "internal_node_id": "0.0-69.0",
    "correct": false
  },
  {
    "rt": null,
    "stimulus": "<h1>H</h1>",
    "key_press": null,
    "trial_type": "html-keyboard-response",
    "trial_index": 70,
    "time_elapsed": 76245,
    "internal_node_id": "0.0-70.0"
  },
  {
    "rt": 1886.9549999944866,
    "responses": "{\"response\":\"FFFFF\"}",
    "correct_letters": "QKYH",
    "trial_type": "survey-html-form",
    "trial_index": 71,
    "time_elapsed": 78136,
    "internal_node_id": "0.0-71.0",
    "letters_recalled": "FFFFF",
    "correct": false
  },
  {
    "rt": null,
    "stimulus": "<h3>Elle rassembla ses maigres affaires et partit sans se retourner loin de ce village.</p>",
    "button_pressed": null,
    "make_sense": 1,
    "trial_type": "html-button-response",
    "trial_index": 72,
    "time_elapsed": 79076,
    "internal_node_id": "0.0-72.0",
    "correct": false
  },
  {
    "rt": null,
    "stimulus": "<h1>R</h1>",
    "key_press": null,
    "trial_type": "html-keyboard-response",
    "trial_index": 73,
    "time_elapsed": 80082,
    "internal_node_id": "0.0-73.0"
  },
  {
    "rt": 857.9850001260638,
    "stimulus": "<h3>Le notaire a donné rendez- vous à son client vendredi prochain en fin de matinée.</p>",
    "button_pressed": 1,
    "make_sense": 1,
    "trial_type": "html-button-response",
    "trial_index": 74,
    "time_elapsed": 80945,
    "internal_node_id": "0.0-74.0",
    "correct": true
  },
  {
    "rt": null,
    "stimulus": "<h1>Q</h1>",
    "key_press": null,
    "trial_type": "html-keyboard-response",
    "trial_index": 75,
    "time_elapsed": 81962,
    "internal_node_id": "0.0-75.0"
  },
  {
    "rt": 347.1099999733269,
    "stimulus": "<h3>Comme toujours dans ce bureau de poste, il n'y avait personne derrière la limonade.</p>",
    "button_pressed": 1,
    "make_sense": 0,
    "trial_type": "html-button-response",
    "trial_index": 76,
    "time_elapsed": 82313,
    "internal_node_id": "0.0-76.0",
    "correct": false
  },
  {
    "rt": null,
    "stimulus": "<h1>K</h1>",
    "key_press": null,
    "trial_type": "html-keyboard-response",
    "trial_index": 77,
    "time_elapsed": 83331,
    "internal_node_id": "0.0-77.0"
  },
  {
    "rt": 400.6950000766665,
    "stimulus": "<h3>Le ciel prit de délicates teintes pâles et le soleil glissa lentement vers l'horizon.</p>",
    "button_pressed": 1,
    "make_sense": 1,
    "trial_type": "html-button-response",
    "trial_index": 78,
    "time_elapsed": 83735,
    "internal_node_id": "0.0-78.0",
    "correct": true
  },
  {
    "rt": null,
    "stimulus": "<h1>L</h1>",
    "key_press": null,
    "trial_type": "html-keyboard-response",
    "trial_index": 79,
    "time_elapsed": 84748,
    "internal_node_id": "0.0-79.0"
  },
  {
    "rt": 201.8699999898672,
    "stimulus": "<h3>Il revenait du bord de la rivière où il avait empli ses poches de petits juges.</p>",
    "button_pressed": 1,
    "make_sense": 0,
    "trial_type": "html-button-response",
    "trial_index": 80,
    "time_elapsed": 84967,
    "internal_node_id": "0.0-80.0",
    "correct": false
  },
  {
    "rt": null,
    "stimulus": "<h1>P</h1>",
    "key_press": null,
    "trial_type": "html-keyboard-response",
    "trial_index": 81,
    "time_elapsed": 85971,
    "internal_node_id": "0.0-81.0"
  },
  {
    "rt": 6713.590000057593,
    "responses": "{\"response\":\"\"}",
    "correct_letters": "RQKLP",
    "trial_type": "survey-html-form",
    "trial_index": 82,
    "time_elapsed": 92689,
    "internal_node_id": "0.0-82.0",
    "letters_recalled": "",
    "correct": false
  },
  {
    "rt": null,
    "stimulus": "<h3>La jeune fille est partie en abandonnant son hockey devant le magasin.</p>",
    "button_pressed": null,
    "make_sense": 0,
    "trial_type": "html-button-response",
    "trial_index": 83,
    "time_elapsed": 93643,
    "internal_node_id": "0.0-83.0",
    "correct": false
  },
  {
    "rt": null,
    "stimulus": "<h1>Y</h1>",
    "key_press": null,
    "trial_type": "html-keyboard-response",
    "trial_index": 84,
    "time_elapsed": 94650,
    "internal_node_id": "0.0-84.0"
  },
  {
    "rt": null,
    "stimulus": "<h3>Le jardin est resté intact et superbe en dépit des ronces et des hautes herbes.</p>",
    "button_pressed": null,
    "make_sense": 1,
    "trial_type": "html-button-response",
    "trial_index": 85,
    "time_elapsed": 95591,
    "internal_node_id": "0.0-85.0",
    "correct": false
  },
  {
    "rt": null,
    "stimulus": "<h1>T</h1>",
    "key_press": null,
    "trial_type": "html-keyboard-response",
    "trial_index": 86,
    "time_elapsed": 96605,
    "internal_node_id": "0.0-86.0"
  },
  {
    "rt": null,
    "stimulus": "<h3>La femme du concierge dormait dans une liste très sombre sur un vieux matelas.</p>",
    "button_pressed": null,
    "make_sense": 0,
    "trial_type": "html-button-response",
    "trial_index": 87,
    "time_elapsed": 97543,
    "internal_node_id": "0.0-87.0",
    "correct": false
  },
  {
    "rt": null,
    "stimulus": "<h1>S</h1>",
    "key_press": null,
    "trial_type": "html-keyboard-response",
    "trial_index": 88,
    "time_elapsed": 98549,
    "internal_node_id": "0.0-88.0"
  },
  {
    "rt": 458.38999981060624,
    "stimulus": "<h3>Le malade se pencha à l'oreille de son voisin pour lui confier ses angoisses.</p>",
    "button_pressed": 1,
    "make_sense": 1,
    "trial_type": "html-button-response",
    "trial_index": 89,
    "time_elapsed": 99013,
    "internal_node_id": "0.0-89.0",
    "correct": true
  },
  {
    "rt": null,
    "stimulus": "<h1>F</h1>",
    "key_press": null,
    "trial_type": "html-keyboard-response",
    "trial_index": 90,
    "time_elapsed": 100025,
    "internal_node_id": "0.0-90.0"
  },
  {
    "rt": 930.3900001104921,
    "stimulus": "<h3>Les refus que les pèlerins essuyèrent sur la route leur causèrent du lavage.</p>",
    "button_pressed": 1,
    "make_sense": 0,
    "trial_type": "html-button-response",
    "trial_index": 91,
    "time_elapsed": 100959,
    "internal_node_id": "0.0-91.0",
    "correct": false
  },
  {
    "rt": null,
    "stimulus": "<h1>N</h1>",
    "key_press": null,
    "trial_type": "html-keyboard-response",
    "trial_index": 92,
    "time_elapsed": 101967,
    "internal_node_id": "0.0-92.0"
  },
  {
    "rt": 1642.0849999412894,
    "responses": "{\"response\":\"JJJ\"}",
    "correct_letters": "YTSFN",
    "trial_type": "survey-html-form",
    "trial_index": 93,
    "time_elapsed": 103614,
    "internal_node_id": "0.0-93.0",
    "letters_recalled": "JJJ",
    "correct": false
  },
  {
    "rt": null,
    "stimulus": "<h3>Chacun savait que le manteau de cette vieille femme n'était pas en vraie fourrure.</p>",
    "button_pressed": null,
    "make_sense": 1,
    "trial_type": "html-button-response",
    "trial_index": 94,
    "time_elapsed": 104556,
    "internal_node_id": "0.0-94.0",
    "correct": false
  },
  {
    "rt": null,
    "stimulus": "<h1>N</h1>",
    "key_press": null,
    "trial_type": "html-keyboard-response",
    "trial_index": 95,
    "time_elapsed": 105574,
    "internal_node_id": "0.0-95.0"
  },
  {
    "rt": null,
    "stimulus": "<h3>Au cours des derniers mois, ce terrain sablonneux est devenu le stylo de l'île.</p>",
    "button_pressed": null,
    "make_sense": 0,
    "trial_type": "html-button-response",
    "trial_index": 96,
    "time_elapsed": 106526,
    "internal_node_id": "0.0-96.0",
    "correct": false
  },
  {
    "rt": null,
    "stimulus": "<h1>Y</h1>",
    "key_press": null,
    "trial_type": "html-keyboard-response",
    "trial_index": 97,
    "time_elapsed": 107538,
    "internal_node_id": "0.0-97.0"
  },
  {
    "rt": null,
    "stimulus": "<h3>Le nouveau mécanicien lui avait conseillé de manger plus souvent le niveau d'huile.</p>",
    "button_pressed": null,
    "make_sense": 0,
    "trial_type": "html-button-response",
    "trial_index": 98,
    "time_elapsed": 108490,
    "internal_node_id": "0.0-98.0",
    "correct": false
  },
  {
    "rt": null,
    "stimulus": "<h1>F</h1>",
    "key_press": null,
    "trial_type": "html-keyboard-response",
    "trial_index": 99,
    "time_elapsed": 109508,
    "internal_node_id": "0.0-99.0"
  },
  {
    "rt": null,
    "stimulus": "<h3>Il a passé ses vacances à chercher les trésors enfouis au plus profond de l'océan.</p>",
    "button_pressed": null,
    "make_sense": 1,
    "trial_type": "html-button-response",
    "trial_index": 100,
    "time_elapsed": 110461,
    "internal_node_id": "0.0-100.0",
    "correct": false
  },
  {
    "rt": null,
    "stimulus": "<h1>T</h1>",
    "key_press": null,
    "trial_type": "html-keyboard-response",
    "trial_index": 101,
    "time_elapsed": 111472,
    "internal_node_id": "0.0-101.0"
  },
  {
    "rt": 311.03999982587993,
    "stimulus": "<h3>L'âne se mit à patauger et la charrette s'enfonça jusqu'au milieu des roues.</p>",
    "button_pressed": 1,
    "make_sense": 1,
    "trial_type": "html-button-response",
    "trial_index": 102,
    "time_elapsed": 111788,
    "internal_node_id": "0.0-102.0",
    "correct": true
  },
  {
    "rt": null,
    "stimulus": "<h1>R</h1>",
    "key_press": null,
    "trial_type": "html-keyboard-response",
    "trial_index": 103,
    "time_elapsed": 112807,
    "internal_node_id": "0.0-103.0"
  },
  {
    "rt": 381.38499995693564,
    "stimulus": "<h3>Pour l'anniversaire de son mari, elle brillait entre une ceinture et une cravate.</p>",
    "button_pressed": 1,
    "make_sense": 0,
    "trial_type": "html-button-response",
    "trial_index": 104,
    "time_elapsed": 113193,
    "internal_node_id": "0.0-104.0",
    "correct": false
  },
  {
    "rt": null,
    "stimulus": "<h1>H</h1>",
    "key_press": null,
    "trial_type": "html-keyboard-response",
    "trial_index": 105,
    "time_elapsed": 114199,
    "internal_node_id": "0.0-105.0"
  },
  {
    "rt": 1655.2099999971688,
    "responses": "{\"response\":\"SS\"}",
    "correct_letters": "NYFTRH",
    "trial_type": "survey-html-form",
    "trial_index": 106,
    "time_elapsed": 115860,
    "internal_node_id": "0.0-106.0",
    "letters_recalled": "SS",
    "correct": false
  },
  {
    "view_history": "[{\"page_index\":0,\"viewing_time\":1477.0500001031905}]",
    "rt": 1478.6300000268966,
    "trial_type": "instructions",
    "trial_index": 107,
    "time_elapsed": 117340,
    "internal_node_id": "0.0-107.0"
  }
]