"view_history","rt","part","trial_type","trial_index","time_elapsed","internal_node_id","subject_id","stimulus","key_press","letter","trial_id","id_2_back","block_part","prev_letter","is_target","correct","response_type","audio_id","audio_file","responses","retransc"
"[{""page_index"":0,""viewing_time"":709.2449999981909},{""page_index"":1,""viewing_time"":594.9849999997241},{""page_index"":2,""viewing_time"":901.9250000019383}]","2206.640000000334","instruction","instructions","0","2209","0.0-0.0","1","","","","","","","","","","","","","",""
"[{""page_index"":0,""viewing_time"":585.4350000008708},{""page_index"":1,""viewing_time"":654.8499999989872}]","1240.6349999982922","instruction","instructions","1","3450","0.0-1.0","1","","","","","","","","","","","","","",""
"","1090.4850000006263","Preparation","html-keyboard-response","2","4543","0.0-2.0","1","<h1>Positionnement de la main droite</h1><p>Placez l'index de votre <strong>main droite</strong> sur la touche '<strong>J</strong>'</p><p>Vous devrez garder votre doigt en position durant toute la session.</p><p>Lorsque vous êtes prêt appuyez sur la touche '<strong>J</strong>' pour continuer.</p>","74","","","","","","","","","","","",""
"","358.6800000011863","Preparation","html-keyboard-response","3","5411","0.0-3.0","1","<h1>Positionnement de la main gauche</h1><p>Placez l'index de votre <strong>main gauche</strong> sur la touche '<strong>F</strong>'</p><p>Vous devrez garder votre doigt en position durant toute la session.</p><p>Lorsque vous êtes prêt appuyez sur la touche '<strong>F</strong>' pour commencer la tâche.</p>","70","","","","","","","","","","","",""
"","null","Pause","html-keyboard-response","4","6425","0.0-4.0","1","","null","","","","","","","","","","","",""
"","1094.6599999988393","2-back-pre","html-keyboard-response","5","8437","0.0-5.0","1","<h1 class='mono'>1</h1>","70","1","0","1","1","","0","1","Non-target","","","",""
"","230.60500000065076","2-back-pre","html-keyboard-response","6","10448","0.0-6.0","1","<h1 class='mono'>F</h1>","70","F","1","1","1","","0","1","Non-target","","","",""
"","199.79500000044936","2-back-pre","html-keyboard-response","7","12457","0.0-7.0","1","<h1 class='mono'>T</h1>","70","T","2","1","1","1","0","1","Non-target","","","",""
"","239.93500000142376","2-back-pre","html-keyboard-response","8","14461","0.0-8.0","1","<h1 class='mono'>F</h1>","74","F","3","1","1","F","1","1","Target","","","",""
"","230.39000000062515","2-back-pre","html-keyboard-response","9","16472","0.0-9.0","1","<h1 class='mono'>S</h1>","70","S","4","1","1","T","0","1","Non-target","","","",""
"","257.3149999989255","2-back-pre","html-keyboard-response","10","18482","0.0-10.0","1","<h1 class='mono'>R</h1>","70","R","5","1","1","F","0","1","Non-target","","","",""
"","210.3499999975611","2-back-pre","html-keyboard-response","11","20492","0.0-11.0","1","<h1 class='mono'>S</h1>","70","S","6","1","1","S","1","0","Mismatch","","","",""
"","226.65500000221073","2-back-pre","html-keyboard-response","12","22499","0.0-12.0","1","<h1 class='mono'>F</h1>","70","F","7","1","1","R","0","1","Non-target","","","",""
"","null","Pause","html-keyboard-response","13","25513","0.0-13.0","1","<h2>Reprise dans 3 secondes ...</h2>","null","","","","","","","","","","","",""
"","null","Pause","html-keyboard-response","14","26527","0.0-14.0","1","","null","","","","","","","","","","","",""
"","572.8400000007241","2-back-pre","html-keyboard-response","15","28538","0.0-15.0","1","<h1 class='mono'>2</h1>","70","2","0","2","2","","0","1","Non-target","","","",""
"","245.68499999804772","2-back-pre","html-keyboard-response","16","30554","0.0-16.0","1","<h1 class='mono'>F</h1>","70","F","1","2","2","","0","1","Non-target","","","",""
"","245.9999999991851","2-back-pre","html-keyboard-response","17","32568","0.0-17.0","1","<h1 class='mono'>T</h1>","70","T","2","2","2","2","0","1","Non-target","","","",""
"","218.3100000002014","2-back-pre","html-keyboard-response","18","34570","0.0-18.0","1","<h1 class='mono'>F</h1>","74","F","3","2","2","F","1","1","Target","","","",""
"","226.95500000190805","2-back-pre","html-keyboard-response","19","36585","0.0-19.0","1","<h1 class='mono'>S</h1>","70","S","4","2","2","T","0","1","Non-target","","","",""
"","220.47999999995227","2-back-pre","html-keyboard-response","20","38587","0.0-20.0","1","<h1 class='mono'>R</h1>","70","R","5","2","2","F","0","1","Non-target","","","",""
"","107.33999999865773","2-back-pre","html-keyboard-response","21","40602","0.0-21.0","1","<h1 class='mono'>S</h1>","74","S","6","2","2","S","1","1","Target","","","",""
"","423.7749999992957","2-back-pre","html-keyboard-response","22","42604","0.0-22.0","1","<h1 class='mono'>F</h1>","70","F","7","2","2","R","0","1","Non-target","","","",""
"","null","Pause","html-keyboard-response","23","43615","0.0-23.0","1","","null","","","","","","","","","","","",""
"[{""page_index"":0,""viewing_time"":5475.204999998823},{""page_index"":1,""viewing_time"":14000.855000002048},{""page_index"":2,""viewing_time"":1804.9599999976635},{""page_index"":3,""viewing_time"":2891.040000002249}]","24172.49499999889","instruction","instructions","24","67788","0.0-24.0","1","","","","","","","","","","","","","",""
"","null","Pause","html-keyboard-response","25","68792","0.0-25.0","1","","null","","","","","","","","","","","",""
"","null","Beep Beep Beep","audio-keyboard-response","26","71813","0.0-26.0","1","../assets/beep_beep_beep.mp3","null","","","","","","","","","","","",""
"","null","Pause","html-keyboard-response","27","72816","0.0-27.0","1","","null","","","","","","","","","","","",""
"","null","Audio","audio-keyboard-response","28","77881","0.0-28.0","1","audio/mp3/conf-001.mp3","null","","","","","","","","","1","conf-001.mp3","",""
"","12507.735000002867","Retranscription","survey-html-form","29","90392","0.0-29.0","1","","","","","","","","","","","","","{""rep"":""what's keep us healthy and happy ?""}","what's keep us healthy and happy ?"
"","null","Audio","audio-keyboard-response","30","95553","0.0-30.0","1","audio/mp3/conf-002.mp3","null","","","","","","","","","2","conf-002.mp3","",""
"","12500.804999999673","Retranscription","survey-html-form","31","108056","0.0-31.0","1","","","","","","","","","","","","","{""rep"":""""}",""
"","null","Audio","audio-keyboard-response","32","111913","0.0-32.0","1","audio/mp3/conf-003.mp3","null","","","","","","","","","3","conf-003.mp3","",""
"","7500.860000000102","Retranscription","survey-html-form","33","119416","0.0-33.0","1","","","","","","","","","","","","","{""rep"":""trhbf""}","trhbf"
"","null","Pause","html-keyboard-response","34","120431","0.0-34.0","1","","null","","","","","","","","","","","",""
"","null","Pause","html-keyboard-response","35","123444","0.0-35.0","1","<h2>2-back dans 3 secondes ...</h2><p>Préparez vous à appuyez sur 'F' et 'J'</p>","null","","","","","","","","","","","",""
"","null","Pause","html-keyboard-response","36","124457","0.0-36.0","1","","null","","","","","","","","","","","",""
"","null","2-back-post","html-keyboard-response","37","126467","0.0-37.0","1","<h1 class='mono'>3</h1>","null","3","0","3","1","","0","0","No-input","","","",""
"","369.61999999766704","2-back-post","html-keyboard-response","38","128484","0.0-38.0","1","<h1 class='mono'>F</h1>","70","F","1","3","1","","0","1","Non-target","","","",""
"","253.49999999889405","2-back-post","html-keyboard-response","39","130488","0.0-39.0","1","<h1 class='mono'>T</h1>","70","T","2","3","1","3","0","1","Non-target","","","",""
"","243.11500000112574","2-back-post","html-keyboard-response","40","132501","0.0-40.0","1","<h1 class='mono'>F</h1>","74","F","3","3","1","F","1","1","Target","","","",""
"","353.13500000120257","2-back-post","html-keyboard-response","41","134516","0.0-41.0","1","<h1 class='mono'>S</h1>","70","S","4","3","1","T","0","1","Non-target","","","",""
"","255.08999999874504","2-back-post","html-keyboard-response","42","136519","0.0-42.0","1","<h1 class='mono'>R</h1>","70","R","5","3","1","F","0","1","Non-target","","","",""
"","252.83000000126776","2-back-post","html-keyboard-response","43","138521","0.0-43.0","1","<h1 class='mono'>S</h1>","70","S","6","3","1","S","1","0","Mismatch","","","",""
"","746.9100000016624","2-back-post","html-keyboard-response","44","140528","0.0-44.0","1","<h1 class='mono'>F</h1>","74","F","7","3","1","R","0","0","False-alarm","","","",""
"","null","Pause","html-keyboard-response","45","143530","0.0-45.0","1","<h2>Reprise dans 3 secondes ...</h2>","null","","","","","","","","","","","",""
"","null","Pause","html-keyboard-response","46","144531","0.0-46.0","1","","null","","","","","","","","","","","",""
"","355.99500000171247","2-back-post","html-keyboard-response","47","146533","0.0-47.0","1","<h1 class='mono'>4</h1>","70","4","0","4","2","","0","1","Non-target","","","",""
"","380.4049999998824","2-back-post","html-keyboard-response","48","148536","0.0-48.0","1","<h1 class='mono'>F</h1>","70","F","1","4","2","","0","1","Non-target","","","",""
"","360.14000000068336","2-back-post","html-keyboard-response","49","150538","0.0-49.0","1","<h1 class='mono'>T</h1>","70","T","2","4","2","4","0","1","Non-target","","","",""
"","327.900000000227","2-back-post","html-keyboard-response","50","152540","0.0-50.0","1","<h1 class='mono'>F</h1>","70","F","3","4","2","F","1","0","Mismatch","","","",""
"","300.7899999975052","2-back-post","html-keyboard-response","51","154542","0.0-51.0","1","<h1 class='mono'>S</h1>","74","S","4","4","2","T","0","0","False-alarm","","","",""
"","313.21500000194646","2-back-post","html-keyboard-response","52","156545","0.0-52.0","1","<h1 class='mono'>R</h1>","70","R","5","4","2","F","0","1","Non-target","","","",""
"","null","2-back-post","html-keyboard-response","53","158547","0.0-53.0","1","<h1 class='mono'>S</h1>","null","S","6","4","2","S","1","0","No-input","","","",""
"","264.02500000040163","2-back-post","html-keyboard-response","54","160549","0.0-54.0","1","<h1 class='mono'>F</h1>","70","F","7","4","2","R","0","1","Non-target","","","",""