view_history,rt,part,trial_type,trial_index,time_elapsed,internal_node_id,subject_id,stimulus,key_press,button_pressed,make_sense,correct,responses,correct_letters,set_number,size,letters_recalled,audio_id,audio_file,retransc
,,,fullscreen,0,3843,0.0-0.0,2,,,,,,,,,,,,,
"[{""page_index"":0,""viewing_time"":727.0649999991292},{""page_index"":1,""viewing_time"":883.6000000010245},{""page_index"":2,""viewing_time"":2681.2149999968824}]",4292.6450000014,instruction,instructions,1,8137,0.0-1.0,2,,,,,,,,,,,,,
"[{""page_index"":0,""viewing_time"":1176.2649999946007},{""page_index"":1,""viewing_time"":544.8400000022957}]",1721.4849999946,instruction,instructions,2,9860,0.0-2.0,2,,,,,,,,,,,,,
,,Pause,html-keyboard-response,3,10867,0.0-3.0,2,"",,,,,,,,,,,,
,1642.1300000002,sentence-pre,html-button-response,4,12511,0.0-4.0,2,"<p style='font-size: 1.3em'>When I get up in the morning, the first thing I do is feed my dog.</p>",,1,1,1,,,,,,,,
,,letter-pre,html-keyboard-response,5,13522,0.0-5.0,2,<p class='mono' style='font-size: 2.5em' >S</p>,,,,,,,,,,,,
,584.69500000501,sentence-pre,html-button-response,6,14420,0.0-6.0,2,"<p style='font-size: 1.3em'>After yelling at the game, I knew I would have a tall voice.</p>",,0,0,1,,,,,,,,
,,letter-pre,html-keyboard-response,7,15424,0.0-7.0,2,<p class='mono' style='font-size: 2.5em' >Q</p>,,,,,,,,,,,,
,356.24000000098,sentence-pre,html-button-response,8,16083,0.0-8.0,2,<p style='font-size: 1.3em'>Mary was asked to stop at the new mall to pick up several items.</p>,,1,1,1,,,,,,,,
,,letter-pre,html-keyboard-response,9,17096,0.0-9.0,2,<p class='mono' style='font-size: 2.5em' >P</p>,,,,,,,,,,,,
,899.09500000067,sentence-pre,html-button-response,10,18310,0.0-10.0,2,"<p style='font-size: 1.3em'>When it is cold, my mother always makes me wear a cap on my head.</p>",,0,1,0,,,,,,,,
,,letter-pre,html-keyboard-response,11,19312,0.0-11.0,2,<p class='mono' style='font-size: 2.5em' >F</p>,,,,,,,,,,,,
,312.58499999967,sentence-pre,html-button-response,12,19928,0.0-12.0,2,<p style='font-size: 1.3em'>All parents hope their list will grow up to be intelligent.</p>,,1,0,0,,,,,,,,
,,letter-pre,html-keyboard-response,13,20930,0.0-13.0,2,<p class='mono' style='font-size: 2.5em' >K</p>,,,,,,,,,,,,
,2130.0100000008,recall-pre,survey-html-form,14,23364,0.0-14.0,2,,,,,0,"{""response"":""____""}",SQPFK,1,5,____,,,
,1448.3449999971,sentence-pre,html-button-response,15,24815,0.0-15.0,2,"<p style='font-size: 1.3em'>When John and Amy moved to Canada, their wish had a huge garage sale.</p>",,1,0,0,,,,,,,,
,,letter-pre,html-keyboard-response,16,25817,0.0-16.0,2,<p class='mono' style='font-size: 2.5em' >R</p>,,,,,,,,,,,,
,372.75000000227,sentence-pre,html-button-response,17,26492,0.0-17.0,2,"<p style='font-size: 1.3em'>In the fall, my gift and I love to work together in the yard.</p>",,0,0,1,,,,,,,,
,,letter-pre,html-keyboard-response,18,27495,0.0-18.0,2,<p class='mono' style='font-size: 2.5em' >J</p>,,,,,,,,,,,,
,179.64999999822,sentence-pre,html-button-response,19,27976,0.0-19.0,2,"<p style='font-size: 1.3em'>At church yesterday morning, Jim's daughter made a terrible plum.</p>",,0,0,1,,,,,,,,
,,letter-pre,html-keyboard-response,20,28978,0.0-20.0,2,<p class='mono' style='font-size: 2.5em' >F</p>,,,,,,,,,,,,
,355.37499999919,sentence-pre,html-button-response,21,29635,0.0-21.0,2,"<p style='font-size: 1.3em'>Unaware of the hunter, the deer wandered into his shotgun range. </p>",,1,1,1,,,,,,,,
,,letter-pre,html-keyboard-response,22,30637,0.0-22.0,2,<p class='mono' style='font-size: 2.5em' >Y</p>,,,,,,,,,,,,
,258.48499999847,sentence-pre,html-button-response,23,31198,0.0-23.0,2,"<p style='font-size: 1.3em'>Since it was the last game, it was hard to cope with the loss.</p>",,0,1,0,,,,,,,,
,,letter-pre,html-keyboard-response,24,32201,0.0-24.0,2,<p class='mono' style='font-size: 2.5em' >K</p>,,,,,,,,,,,,
,636.67999999598,sentence-pre,html-button-response,25,33140,0.0-25.0,2,"<p style='font-size: 1.3em'>Because she gets to knife early, Amy usually gets a good parking spot.</p>",,1,0,0,,,,,,,,
,,letter-pre,html-keyboard-response,26,34142,0.0-26.0,2,<p class='mono' style='font-size: 2.5em' >S</p>,,,,,,,,,,,,
,2252.7249999985,recall-pre,survey-html-form,27,36698,0.0-27.0,2,,,,,0,"{""response"":""_""}",RJFYKS,2,6,_,,,
,568.69999999617,sentence-pre,html-button-response,28,37268,0.0-28.0,2,<p style='font-size: 1.3em'>The only furniture Steve had in his first bowl was his waterbed.</p>,,1,0,0,,,,,,,,
,,letter-pre,html-keyboard-response,29,38271,0.0-29.0,2,<p class='mono' style='font-size: 2.5em' >Y</p>,,,,,,,,,,,,
,308.10999999812,sentence-pre,html-button-response,30,38881,0.0-30.0,2,"<p style='font-size: 1.3em'>Last year, Mike was given detention for running in the hall.</p>",,0,1,0,,,,,,,,
,,letter-pre,html-keyboard-response,31,39884,0.0-31.0,2,<p class='mono' style='font-size: 2.5em' >T</p>,,,,,,,,,,,,
,474.40500000084,sentence-pre,html-button-response,32,40660,0.0-32.0,2,<p style='font-size: 1.3em'>The huge clouds covered the morning slide and the rain began to fall.</p>,,1,0,0,,,,,,,,
,,letter-pre,html-keyboard-response,33,41662,0.0-33.0,2,<p class='mono' style='font-size: 2.5em' >S</p>,,,,,,,,,,,,
,930.67000000156,sentence-pre,html-button-response,34,42896,0.0-34.0,2,<p style='font-size: 1.3em'>After one date I knew that Linda's sister simply was not my type.</p>,,0,1,0,,,,,,,,
,,letter-pre,html-keyboard-response,35,43897,0.0-35.0,2,<p class='mono' style='font-size: 2.5em' >Q</p>,,,,,,,,,,,,
,294.38999999547,sentence-pre,html-button-response,36,44493,0.0-36.0,2,<p style='font-size: 1.3em'>Jason broke his arm when he fell from the tree onto the ground. </p>,,1,1,1,,,,,,,,
,,letter-pre,html-keyboard-response,37,45496,0.0-37.0,2,<p class='mono' style='font-size: 2.5em' >F</p>,,,,,,,,,,,,
,6515.625,recall-pre,survey-html-form,38,52315,0.0-38.0,2,,,,,0,"{""response"":""_YSQF""}",YTSQF,3,5,_YSQF,,,
,3820.3650000069,sentence-pre,html-button-response,39,56137,0.0-39.0,2,<p style='font-size: 1.3em'>Most people agree that Monday is the worst stick of the week.</p>,,1,0,0,,,,,,,,
,,letter-pre,html-keyboard-response,40,57140,0.0-40.0,2,<p class='mono' style='font-size: 2.5em' >F</p>,,,,,,,,,,,,
,267.82500000263,sentence-pre,html-button-response,41,57710,0.0-41.0,2,"<p style='font-size: 1.3em'>On warm sunny afternoons, I like to walk in the park.</p>",,0,1,0,,,,,,,,
,,letter-pre,html-keyboard-response,42,58711,0.0-42.0,2,<p class='mono' style='font-size: 2.5em' >H</p>,,,,,,,,,,,,
,255.94000000274,sentence-pre,html-button-response,43,59270,0.0-43.0,2,<p style='font-size: 1.3em'>With intense determination he overcame all obstacles and won the race.</p>,,1,1,1,,,,,,,,
,,letter-pre,html-keyboard-response,44,60271,0.0-44.0,2,<p class='mono' style='font-size: 2.5em' >R</p>,,,,,,,,,,,,
,995.09000000398,sentence-pre,html-button-response,45,61569,0.0-45.0,2,<p style='font-size: 1.3em'>A person should never be discriminated against based on his race.</p>,,1,1,1,,,,,,,,
,,letter-pre,html-keyboard-response,46,62571,0.0-46.0,2,<p class='mono' style='font-size: 2.5em' >J</p>,,,,,,,,,,,,
,361.9749999998,sentence-pre,html-button-response,47,63234,0.0-47.0,2,<p style='font-size: 1.3em'>My mother has always told me that it is not polite to shine.</p>,,0,0,1,,,,,,,,
,,letter-pre,html-keyboard-response,48,64237,0.0-48.0,2,<p class='mono' style='font-size: 2.5em' >Y</p>,,,,,,,,,,,,
,413.73500000191,sentence-pre,html-button-response,49,64953,0.0-49.0,2,<p style='font-size: 1.3em'>The lemonade players decided to play two out of three sets.</p>,,1,0,0,,,,,,,,
,,letter-pre,html-keyboard-response,50,65954,0.0-50.0,2,<p class='mono' style='font-size: 2.5em' >P</p>,,,,,,,,,,,,
,1398.4550000023,recall-pre,survey-html-form,51,67655,0.0-51.0,2,,,,,0,"{""response"":""""}",FHRJYP,4,6,"",,,
,657.12000000349,sentence-pre,html-button-response,52,68314,0.0-52.0,2,<p style='font-size: 1.3em'>Raising children requires a lot of dust and the ability to be firm.</p>,,1,0,0,,,,,,,,
,,letter-pre,html-keyboard-response,53,69316,0.0-53.0,2,<p class='mono' style='font-size: 2.5em' >L</p>,,,,,,,,,,,,
,347.42499999993,sentence-pre,html-button-response,54,69966,0.0-54.0,2,<p style='font-size: 1.3em'>The gathering crowd turned to look when they heard the gun shot.</p>,,0,1,0,,,,,,,,
,,letter-pre,html-keyboard-response,55,70970,0.0-55.0,2,<p class='mono' style='font-size: 2.5em' >S</p>,,,,,,,,,,,,
,525.77500000189,sentence-pre,html-button-response,56,71798,0.0-56.0,2,<p style='font-size: 1.3em'>As soon as I get done taking this envy I am going to go home.</p>,,1,0,0,,,,,,,,
,,letter-pre,html-keyboard-response,57,72800,0.0-57.0,2,<p class='mono' style='font-size: 2.5em' >N</p>,,,,,,,,,,,,
,499.7149999981,sentence-pre,html-button-response,58,73602,0.0-58.0,2,<p style='font-size: 1.3em'>Sue opened her purse and found she did not have any money.</p>,,0,1,0,,,,,,,,
,,letter-pre,html-keyboard-response,59,74604,0.0-59.0,2,<p class='mono' style='font-size: 2.5em' >Y</p>,,,,,,,,,,,,
,968.28499999538,recall-pre,survey-html-form,60,75876,0.0-60.0,2,,,,,0,"{""response"":""""}",LSNY,5,4,"",,,
,2530.2900000024,sentence-pre,html-button-response,61,78408,0.0-61.0,2,"<p style='font-size: 1.3em'>Jill wanted a garden in her backyard, but the soil was mostly clay.</p>",,1,1,1,,,,,,,,
,,letter-pre,html-keyboard-response,62,79409,0.0-62.0,2,<p class='mono' style='font-size: 2.5em' >J</p>,,,,,,,,,,,,
,463.78499999992,sentence-pre,html-button-response,63,80175,0.0-63.0,2,<p style='font-size: 1.3em'>Stacey stopped dating the light when she found out he had a wife.</p>,,0,0,1,,,,,,,,
,,letter-pre,html-keyboard-response,64,81177,0.0-64.0,2,<p class='mono' style='font-size: 2.5em' >Y</p>,,,,,,,,,,,,
,520.09499999986,sentence-pre,html-button-response,65,82000,0.0-65.0,2,<p style='font-size: 1.3em'>I told the class that they would get a surprise if they were orange.</p>,,1,0,0,,,,,,,,
,,letter-pre,html-keyboard-response,66,83003,0.0-66.0,2,<p class='mono' style='font-size: 2.5em' >H</p>,,,,,,,,,,,,
,462.94499999931,sentence-pre,html-button-response,67,83769,0.0-67.0,2,"<p style='font-size: 1.3em'>Jim was so tired of studying, he could not read another page.</p>",,0,1,0,,,,,,,,
,,letter-pre,html-keyboard-response,68,84771,0.0-68.0,2,<p class='mono' style='font-size: 2.5em' >T</p>,,,,,,,,,,,,
,972.36500000145,recall-pre,survey-html-form,69,86046,0.0-69.0,2,,,,,0,"{""response"":""""}",JYHT,6,4,"",,,
"[{""page_index"":0,""viewing_time"":4282.224999995378},{""page_index"":1,""viewing_time"":3204.9450000049546},{""page_index"":2,""viewing_time"":2199.914999997418},{""page_index"":3,""viewing_time"":736.9049999979325}]",10424.429999999,instruction,instructions,70,96472,0.0-70.0,2,,,,,,,,,,,,,
,,Pause,html-keyboard-response,71,97474,0.0-71.0,2,"",,,,,,,,,,,,
,,Beep Beep Beep,audio-keyboard-response,72,100481,0.0-72.0,2,../assets/beep_beep_beep.mp3,,,,,,,,,,,,
,,Pause,html-keyboard-response,73,101494,0.0-73.0,2,"",,,,,,,,,,,,
,,Audio,audio-keyboard-response,74,106561,0.0-74.0,2,audio/mp3/conf-001.mp3,,,,,,,,,,1,conf-001.mp3,
,2468.4300000008,Retranscription,survey-html-form,75,109032,0.0-75.0,2,,,,,,"{""rep"":""hrtstsh""}",,,,,,,hrtstsh
,,Audio,audio-keyboard-response,76,114193,0.0-76.0,2,audio/mp3/conf-002.mp3,,,,,,,,,,2,conf-002.mp3,
,4590.4399999999,Retranscription,survey-html-form,77,118786,0.0-77.0,2,,,,,,"{""rep"":""tsghjgfds""}",,,,,,,tsghjgfds
,,Audio,audio-keyboard-response,78,122633,0.0-78.0,2,audio/mp3/conf-003.mp3,,,,,,,,,,3,conf-003.mp3,
,1399.5950000026,Retranscription,survey-html-form,79,124035,0.0-79.0,2,,,,,,"{""rep"":""""}",,,,,,,""
,,Audio,audio-keyboard-response,80,128133,0.0-80.0,2,audio/mp3/conf-004.mp3,,,,,,,,,,4,conf-004.mp3,
,10012.565000005,Retranscription,survey-html-form,81,138148,0.0-81.0,2,,,,,,"{""rep"":""""}",,,,,,,""
,,Audio,audio-keyboard-response,82,142241,0.0-82.0,2,audio/mp3/conf-005.mp3,,,,,,,,,,5,conf-005.mp3,
,10002.784999997,Retranscription,survey-html-form,83,152246,0.0-83.0,2,,,,,,"{""rep"":""""}",,,,,,,""
,,Audio,audio-keyboard-response,84,157141,0.0-84.0,2,audio/mp3/conf-006.mp3,,,,,,,,,,6,conf-006.mp3,
,10000.459999996,Retranscription,survey-html-form,85,167144,0.0-85.0,2,,,,,,"{""rep"":""""}",,,,,,,""
,,Audio,audio-keyboard-response,86,169393,0.0-86.0,2,audio/mp3/conf-007.mp3,,,,,,,,,,7,conf-007.mp3,
,5001.5050000002,Retranscription,survey-html-form,87,174397,0.0-87.0,2,,,,,,"{""rep"":""""}",,,,,,,""
,,Audio,audio-keyboard-response,88,179365,0.0-88.0,2,audio/mp3/conf-008.mp3,,,,,,,,,,8,conf-008.mp3,
,10009.229999996,Retranscription,survey-html-form,89,189377,0.0-89.0,2,,,,,,"{""rep"":""""}",,,,,,,""
,,Audio,audio-keyboard-response,90,195753,0.0-90.0,2,audio/mp3/conf-009.mp3,,,,,,,,,,9,conf-009.mp3,
,15000.614999997,Retranscription,survey-html-form,91,210756,0.0-91.0,2,,,,,,"{""rep"":""""}",,,,,,,""
,,Audio,audio-keyboard-response,92,217053,0.0-92.0,2,audio/mp3/conf-010.mp3,,,,,,,,,,10,conf-010.mp3,
,15013.634999996,Retranscription,survey-html-form,93,232069,0.0-93.0,2,,,,,,"{""rep"":""""}",,,,,,,""
,,Audio,audio-keyboard-response,94,234717,0.0-94.0,2,audio/mp3/conf-011.mp3,,,,,,,,,,11,conf-011.mp3,
,5000.5200000014,Retranscription,survey-html-form,95,239720,0.0-95.0,2,,,,,,"{""rep"":""""}",,,,,,,""
,,Audio,audio-keyboard-response,96,244145,0.0-96.0,2,audio/mp3/conf-012.mp3,,,,,,,,,,12,conf-012.mp3,
,10002.560000001,Retranscription,survey-html-form,97,254150,0.0-97.0,2,,,,,,"{""rep"":""""}",,,,,,,""
,,Audio,audio-keyboard-response,98,256937,0.0-98.0,2,audio/mp3/conf-013.mp3,,,,,,,,,,13,conf-013.mp3,
,4999.9449999959,Retranscription,survey-html-form,99,261939,0.0-99.0,2,,,,,,"{""rep"":""""}",,,,,,,""
,,Audio,audio-keyboard-response,100,265177,0.0-100.0,2,audio/mp3/conf-014.mp3,,,,,,,,,,14,conf-014.mp3,
,7499.6800000008,Retranscription,survey-html-form,101,272679,0.0-101.0,2,,,,,,"{""rep"":""""}",,,,,,,""
,,Audio,audio-keyboard-response,102,275857,0.0-102.0,2,audio/mp3/conf-015.mp3,,,,,,,,,,15,conf-015.mp3,
,7500.2749999985,Retranscription,survey-html-form,103,283359,0.0-103.0,2,,,,,,"{""rep"":""""}",,,,,,,""
,,Audio,audio-keyboard-response,104,287017,0.0-104.0,2,audio/mp3/conf-016.mp3,,,,,,,,,,16,conf-016.mp3,
,7500.3999999972,Retranscription,survey-html-form,105,294520,0.0-105.0,2,,,,,,"{""rep"":""""}",,,,,,,""
,,Audio,audio-keyboard-response,106,298409,0.0-106.0,2,audio/mp3/conf-017.mp3,,,,,,,,,,17,conf-017.mp3,
,7500.3300000026,Retranscription,survey-html-form,107,305912,0.0-107.0,2,,,,,,"{""rep"":""""}",,,,,,,""
,,Audio,audio-keyboard-response,108,309757,0.0-108.0,2,audio/mp3/conf-018.mp3,,,,,,,,,,18,conf-018.mp3,
,7500.8549999984,Retranscription,survey-html-form,109,317260,0.0-109.0,2,,,,,,"{""rep"":""""}",,,,,,,""
,,Audio,audio-keyboard-response,110,321269,0.0-110.0,2,audio/mp3/conf-019.mp3,,,,,,,,,,19,conf-019.mp3,
,10000.504999996,Retranscription,survey-html-form,111,331272,0.0-111.0,2,,,,,,"{""rep"":""""}",,,,,,,""
,,Audio,audio-keyboard-response,112,336989,0.0-112.0,2,audio/mp3/conf-020.mp3,,,,,,,,,,20,conf-020.mp3,
,12512.569999999,Retranscription,survey-html-form,113,349504,0.0-113.0,2,,,,,,"{""rep"":""""}",,,,,,,""
,,Audio,audio-keyboard-response,114,353629,0.0-114.0,2,audio/mp3/conf-021.mp3,,,,,,,,,,21,conf-021.mp3,
,10004.744999998,Retranscription,survey-html-form,115,363636,0.0-115.0,2,,,,,,"{""rep"":""""}",,,,,,,""
,,Audio,audio-keyboard-response,116,367249,0.0-116.0,2,audio/mp3/conf-022.mp3,,,,,,,,,,22,conf-022.mp3,
,7500.2600000007,Retranscription,survey-html-form,117,374752,0.0-117.0,2,,,,,,"{""rep"":""""}",,,,,,,""
,,Audio,audio-keyboard-response,118,380149,0.0-118.0,2,audio/mp3/conf-023.mp3,,,,,,,,,,23,conf-023.mp3,
,12500.334999997,Retranscription,survey-html-form,119,392652,0.0-119.0,2,,,,,,"{""rep"":""""}",,,,,,,""
,,Audio,audio-keyboard-response,120,396029,0.0-120.0,2,audio/mp3/conf-024.mp3,,,,,,,,,,24,conf-024.mp3,
,7499.9649999954,Retranscription,survey-html-form,121,403531,0.0-121.0,2,,,,,,"{""rep"":""""}",,,,,,,""
,,Audio,audio-keyboard-response,122,406309,0.0-122.0,2,audio/mp3/conf-025.mp3,,,,,,,,,,25,conf-025.mp3,
,5000.3849999994,Retranscription,survey-html-form,123,411312,0.0-123.0,2,,,,,,"{""rep"":""""}",,,,,,,""
,,Audio,audio-keyboard-response,124,417261,0.0-124.0,2,audio/mp3/conf-026.mp3,,,,,,,,,,26,conf-026.mp3,
,12500.605000001,Retranscription,survey-html-form,125,429765,0.0-125.0,2,,,,,,"{""rep"":""""}",,,,,,,""
,,Audio,audio-keyboard-response,126,433793,0.0-126.0,2,audio/mp3/conf-027.mp3,,,,,,,,,,27,conf-027.mp3,
,10000.805000003,Retranscription,survey-html-form,127,443797,0.0-127.0,2,,,,,,"{""rep"":""""}",,,,,,,""
,,Audio,audio-keyboard-response,128,449461,0.0-128.0,2,audio/mp3/conf-028.mp3,,,,,,,,,,28,conf-028.mp3,
,12499.889999999,Retranscription,survey-html-form,129,461964,0.0-129.0,2,,,,,,"{""rep"":""""}",,,,,,,""
,,Audio,audio-keyboard-response,130,467605,0.0-130.0,2,audio/mp3/conf-029.mp3,,,,,,,,,,29,conf-029.mp3,
,12499.974999999,Retranscription,survey-html-form,131,480108,0.0-131.0,2,,,,,,"{""rep"":""""}",,,,,,,""
,,Audio,audio-keyboard-response,132,483293,0.0-132.0,2,audio/mp3/conf-030.mp3,,,,,,,,,,30,conf-030.mp3,
,7499.9749999988,Retranscription,survey-html-form,133,490795,0.0-133.0,2,,,,,,"{""rep"":""""}",,,,,,,""
,,Audio,audio-keyboard-response,134,495845,0.0-134.0,2,audio/mp3/conf-031.mp3,,,,,,,,,,31,conf-031.mp3,
,12499.615000001,Retranscription,survey-html-form,135,508348,0.0-135.0,2,,,,,,"{""rep"":""""}",,,,,,,""
,,Audio,audio-keyboard-response,136,513873,0.0-136.0,2,audio/mp3/conf-032.mp3,,,,,,,,,,32,conf-032.mp3,
,12499.945000003,Retranscription,survey-html-form,137,526376,0.0-137.0,2,,,,,,"{""rep"":""""}",,,,,,,""
,,Audio,audio-keyboard-response,138,529625,0.0-138.0,2,audio/mp3/conf-033.mp3,,,,,,,,,,33,conf-033.mp3,
,7509.3699999998,Retranscription,survey-html-form,139,537137,0.0-139.0,2,,,,,,"{""rep"":""""}",,,,,,,""
,,Audio,audio-keyboard-response,140,541297,0.0-140.0,2,audio/mp3/conf-034.mp3,,,,,,,,,,34,conf-034.mp3,
,10000.404999999,Retranscription,survey-html-form,141,551300,0.0-141.0,2,,,,,,"{""rep"":""""}",,,,,,,""
,,Audio,audio-keyboard-response,142,555257,0.0-142.0,2,audio/mp3/conf-035.mp3,,,,,,,,,,35,conf-035.mp3,
,7500.7449999976,Retranscription,survey-html-form,143,562760,0.0-143.0,2,,,,,,"{""rep"":""""}",,,,,,,""
,,Audio,audio-keyboard-response,144,567205,0.0-144.0,2,audio/mp3/conf-036.mp3,,,,,,,,,,36,conf-036.mp3,
,10000.499999995,Retranscription,survey-html-form,145,577208,0.0-145.0,2,,,,,,"{""rep"":""""}",,,,,,,""
,,Audio,audio-keyboard-response,146,580925,0.0-146.0,2,audio/mp3/conf-037.mp3,,,,,,,,,,37,conf-037.mp3,
,7500.0999999975,Retranscription,survey-html-form,147,588428,0.0-147.0,2,,,,,,"{""rep"":""""}",,,,,,,""
,,Audio,audio-keyboard-response,148,591809,0.0-148.0,2,audio/mp3/conf-038.mp3,,,,,,,,,,38,conf-038.mp3,
,7514.344999996,Retranscription,survey-html-form,149,599326,0.0-149.0,2,,,,,,"{""rep"":""""}",,,,,,,""
,,Audio,audio-keyboard-response,150,603710,0.0-150.0,2,audio/mp3/conf-039.mp3,,,,,,,,,,39,conf-039.mp3,
,10009.645000005,Retranscription,survey-html-form,151,613722,0.0-151.0,2,,,,,,"{""rep"":""""}",,,,,,,""
,,Audio,audio-keyboard-response,152,617249,0.0-152.0,2,audio/mp3/conf-040.mp3,,,,,,,,,,40,conf-040.mp3,
,7500.1750000011,Retranscription,survey-html-form,153,624752,0.0-153.0,2,,,,,,"{""rep"":""""}",,,,,,,""
,,Audio,audio-keyboard-response,154,627698,0.0-154.0,2,audio/mp3/conf-041.mp3,,,,,,,,,,41,conf-041.mp3,
,4999.9749999987,Retranscription,survey-html-form,155,632700,0.0-155.0,2,,,,,,"{""rep"":""""}",,,,,,,""
,,Audio,audio-keyboard-response,156,637258,0.0-156.0,2,audio/mp3/conf-042.mp3,,,,,,,,,,42,conf-042.mp3,
,9999.6200000024,Retranscription,survey-html-form,157,647260,0.0-157.0,2,,,,,,"{""rep"":""""}",,,,,,,""
,,Audio,audio-keyboard-response,158,649790,0.0-158.0,2,audio/mp3/conf-043.mp3,,,,,,,,,,43,conf-043.mp3,
,5000.8650000019,Retranscription,survey-html-form,159,654793,0.0-159.0,2,,,,,,"{""rep"":""""}",,,,,,,""
,,Audio,audio-keyboard-response,160,659802,0.0-160.0,2,audio/mp3/conf-044.mp3,,,,,,,,,,44,conf-044.mp3,
,12500.915000004,Retranscription,survey-html-form,161,672305,0.0-161.0,2,,,,,,"{""rep"":""""}",,,,,,,""
,,Audio,audio-keyboard-response,162,676710,0.0-162.0,2,audio/mp3/conf-045.mp3,,,,,,,,,,45,conf-045.mp3,
,10000.845000002,Retranscription,survey-html-form,163,686713,0.0-163.0,2,,,,,,"{""rep"":""""}",,,,,,,""
,,Audio,audio-keyboard-response,164,689530,0.0-164.0,2,audio/mp3/conf-046.mp3,,,,,,,,,,46,conf-046.mp3,
,5000.0249999939,Retranscription,survey-html-form,165,694532,0.0-165.0,2,,,,,,"{""rep"":""""}",,,,,,,""
,,Audio,audio-keyboard-response,166,699682,0.0-166.0,2,audio/mp3/conf-047.mp3,,,,,,,,,,47,conf-047.mp3,
,12499.670000005,Retranscription,survey-html-form,167,712184,0.0-167.0,2,,,,,,"{""rep"":""""}",,,,,,,""
,,Audio,audio-keyboard-response,168,714034,0.0-168.0,2,audio/mp3/conf-048.mp3,,,,,,,,,,48,conf-048.mp3,
,2501.1999999988,Retranscription,survey-html-form,169,716537,0.0-169.0,2,,,,,,"{""rep"":""""}",,,,,,,""
,,Audio,audio-keyboard-response,170,719454,0.0-170.0,2,audio/mp3/conf-049.mp3,,,,,,,,,,49,conf-049.mp3,
,5013.0349999963,Retranscription,survey-html-form,171,724469,0.0-171.0,2,,,,,,"{""rep"":""""}",,,,,,,""
,,Audio,audio-keyboard-response,172,729614,0.0-172.0,2,audio/mp3/conf-050.mp3,,,,,,,,,,50,conf-050.mp3,
,12501.315000001,Retranscription,survey-html-form,173,742117,0.0-173.0,2,,,,,,"{""rep"":""""}",,,,,,,""
,,Audio,audio-keyboard-response,174,747674,0.0-174.0,2,audio/mp3/conf-051.mp3,,,,,,,,,,51,conf-051.mp3,
,12506.099999999,Retranscription,survey-html-form,175,760182,0.0-175.0,2,,,,,,"{""rep"":""""}",,,,,,,""
,,Audio,audio-keyboard-response,176,763906,0.0-176.0,2,audio/mp3/conf-052.mp3,,,,,,,,,,52,conf-052.mp3,
,7500.6900000008,Retranscription,survey-html-form,177,771408,0.0-177.0,2,,,,,,"{""rep"":""""}",,,,,,,""
,,Audio,audio-keyboard-response,178,774686,0.0-178.0,2,audio/mp3/conf-053.mp3,,,,,,,,,,53,conf-053.mp3,
,7511.0950000016,Retranscription,survey-html-form,179,782199,0.0-179.0,2,,,,,,"{""rep"":""""}",,,,,,,""
,,Audio,audio-keyboard-response,180,785054,0.0-180.0,2,audio/mp3/conf-054.mp3,,,,,,,,,,54,conf-054.mp3,
,5007.6900000058,Retranscription,survey-html-form,181,790064,0.0-181.0,2,,,,,,"{""rep"":""""}",,,,,,,""
,,Audio,audio-keyboard-response,182,794926,0.0-182.0,2,audio/mp3/conf-055.mp3,,,,,,,,,,55,conf-055.mp3,
,10000.964999999,Retranscription,survey-html-form,183,804929,0.0-183.0,2,,,,,,"{""rep"":""""}",,,,,,,""
,,Audio,audio-keyboard-response,184,807965,0.0-184.0,2,audio/mp3/conf-056.mp3,,,,,,,,,,56,conf-056.mp3,
,7514.0349999929,Retranscription,survey-html-form,185,815482,0.0-185.0,2,,,,,,"{""rep"":""""}",,,,,,,""
,,Audio,audio-keyboard-response,186,819766,0.0-186.0,2,audio/mp3/conf-057.mp3,,,,,,,,,,57,conf-057.mp3,
,10015.090000001,Retranscription,survey-html-form,187,829783,0.0-187.0,2,,,,,,"{""rep"":""""}",,,,,,,""
,,Audio,audio-keyboard-response,188,835138,0.0-188.0,2,audio/mp3/conf-058.mp3,,,,,,,,,,58,conf-058.mp3,
,12504.795000001,Retranscription,survey-html-form,189,847645,0.0-189.0,2,,,,,,"{""rep"":""""}",,,,,,,""
,,Audio,audio-keyboard-response,190,852926,0.0-190.0,2,audio/mp3/conf-059.mp3,,,,,,,,,,59,conf-059.mp3,
,12508.860000002,Retranscription,survey-html-form,191,865437,0.0-191.0,2,,,,,,"{""rep"":""""}",,,,,,,""
,,Audio,audio-keyboard-response,192,867798,0.0-192.0,2,audio/mp3/conf-060.mp3,,,,,,,,,,60,conf-060.mp3,
,5001.1099999974,Retranscription,survey-html-form,193,872801,0.0-193.0,2,,,,,,"{""rep"":""""}",,,,,,,""
,,Audio,audio-keyboard-response,194,875518,0.0-194.0,2,audio/mp3/conf-061.mp3,,,,,,,,,,61,conf-061.mp3,
,5011.3800000036,Retranscription,survey-html-form,195,880532,0.0-195.0,2,,,,,,"{""rep"":""""}",,,,,,,""
,,Audio,audio-keyboard-response,196,884438,0.0-196.0,2,audio/mp3/conf-062.mp3,,,,,,,,,,62,conf-062.mp3,
,7502.6100000031,Retranscription,survey-html-form,197,891943,0.0-197.0,2,,,,,,"{""rep"":""""}",,,,,,,""
,,Audio,audio-keyboard-response,198,895638,0.0-198.0,2,audio/mp3/conf-063.mp3,,,,,,,,,,63,conf-063.mp3,
,7503.8050000003,Retranscription,survey-html-form,199,903144,0.0-199.0,2,,,,,,"{""rep"":""""}",,,,,,,""
,,Audio,audio-keyboard-response,200,908390,0.0-200.0,2,audio/mp3/conf-064.mp3,,,,,,,,,,64,conf-064.mp3,
,12508.914999999,Retranscription,survey-html-form,201,920901,0.0-201.0,2,,,,,,"{""rep"":""""}",,,,,,,""
,,Audio,audio-keyboard-response,202,926250,0.0-202.0,2,audio/mp3/conf-065.mp3,,,,,,,,,,65,conf-065.mp3,
,12505.550000002,Retranscription,survey-html-form,203,938758,0.0-203.0,2,,,,,,"{""rep"":""""}",,,,,,,""
,,Audio,audio-keyboard-response,204,943502,0.0-204.0,2,audio/mp3/conf-066.mp3,,,,,,,,,,66,conf-066.mp3,
,10013.794999999,Retranscription,survey-html-form,205,953518,0.0-205.0,2,,,,,,"{""rep"":""""}",,,,,,,""
,,Audio,audio-keyboard-response,206,956330,0.0-206.0,2,audio/mp3/conf-067.mp3,,,,,,,,,,67,conf-067.mp3,
,5009.7999999998,Retranscription,survey-html-form,207,961342,0.0-207.0,2,,,,,,"{""rep"":""""}",,,,,,,""
,,Audio,audio-keyboard-response,208,964050,0.0-208.0,2,audio/mp3/conf-068.mp3,,,,,,,,,,68,conf-068.mp3,
,5000.4049999989,Retranscription,survey-html-form,209,969053,0.0-209.0,2,,,,,,"{""rep"":""""}",,,,,,,""
,,Audio,audio-keyboard-response,210,974722,0.0-210.0,2,audio/mp3/conf-069.mp3,,,,,,,,,,69,conf-069.mp3,
,12507.875000003,Retranscription,survey-html-form,211,987233,0.0-211.0,2,,,,,,"{""rep"":""""}",,,,,,,""
,,Audio,audio-keyboard-response,212,991230,0.0-212.0,2,audio/mp3/conf-070.mp3,,,,,,,,,,70,conf-070.mp3,
,7505.4200000013,Retranscription,survey-html-form,213,998738,0.0-213.0,2,,,,,,"{""rep"":""""}",,,,,,,""
,,Audio,audio-keyboard-response,214,1001734,0.0-214.0,2,audio/mp3/conf-071.mp3,,,,,,,,,,71,conf-071.mp3,
,5011.4399999948,Retranscription,survey-html-form,215,1006748,0.0-215.0,2,,,,,,"{""rep"":""""}",,,,,,,""
,,Audio,audio-keyboard-response,216,1012534,0.0-216.0,2,audio/mp3/conf-072.mp3,,,,,,,,,,72,conf-072.mp3,
,12501.555000003,Retranscription,survey-html-form,217,1025038,0.0-217.0,2,,,,,,"{""rep"":""""}",,,,,,,""
,,Audio,audio-keyboard-response,218,1030782,0.0-218.0,2,audio/mp3/conf-073.mp3,,,,,,,,,,73,conf-073.mp3,
,12502.919999999,Retranscription,survey-html-form,219,1043287,0.0-219.0,2,,,,,,"{""rep"":""""}",,,,,,,""
,,Audio,audio-keyboard-response,220,1045382,0.0-220.0,2,audio/mp3/conf-074.mp3,,,,,,,,,,74,conf-074.mp3,
,5007.2749999962,Retranscription,survey-html-form,221,1050391,0.0-221.0,2,,,,,,"{""rep"":""""}",,,,,,,""
,,Audio,audio-keyboard-response,222,1055174,0.0-222.0,2,audio/mp3/conf-075.mp3,,,,,,,,,,75,conf-075.mp3,
,10014.865000005,Retranscription,survey-html-form,223,1065191,0.0-223.0,2,,,,,,"{""rep"":""""}",,,,,,,""
,,Audio,audio-keyboard-response,224,1070846,0.0-224.0,2,audio/mp3/conf-076.mp3,,,,,,,,,,76,conf-076.mp3,
,12512.495000003,Retranscription,survey-html-form,225,1083361,0.0-225.0,2,,,,,,"{""rep"":""""}",,,,,,,""
,,Audio,audio-keyboard-response,226,1087734,0.0-226.0,2,audio/mp3/conf-077.mp3,,,,,,,,,,77,conf-077.mp3,
,10007.084999997,Retranscription,survey-html-form,227,1097743,0.0-227.0,2,,,,,,"{""rep"":""""}",,,,,,,""
,,Audio,audio-keyboard-response,228,1102226,0.0-228.0,2,audio/mp3/conf-078.mp3,,,,,,,,,,78,conf-078.mp3,
,10010.324999996,Retranscription,survey-html-form,229,1112239,0.0-229.0,2,,,,,,"{""rep"":""""}",,,,,,,""
,,Audio,audio-keyboard-response,230,1115646,0.0-230.0,2,audio/mp3/conf-079.mp3,,,,,,,,,,79,conf-079.mp3,
,7502.3849999998,Retranscription,survey-html-form,231,1123151,0.0-231.0,2,,,,,,"{""rep"":""""}",,,,,,,""
,,Audio,audio-keyboard-response,232,1126746,0.0-232.0,2,audio/mp3/conf-080.mp3,,,,,,,,,,80,conf-080.mp3,
,7508.5600000022,Retranscription,survey-html-form,233,1134257,0.0-233.0,2,,,,,,"{""rep"":""""}",,,,,,,""
,,Audio,audio-keyboard-response,234,1137426,0.0-234.0,2,audio/mp3/conf-081.mp3,,,,,,,,,,81,conf-081.mp3,
,7504.4500000002,Retranscription,survey-html-form,235,1144933,0.0-235.0,2,,,,,,"{""rep"":""""}",,,,,,,""
,,Audio,audio-keyboard-response,236,1148178,0.0-236.0,2,audio/mp3/conf-082.mp3,,,,,,,,,,82,conf-082.mp3,
,7508.5250000048,Retranscription,survey-html-form,237,1155689,0.0-237.0,2,,,,,,"{""rep"":""""}",,,,,,,""
,,Audio,audio-keyboard-response,238,1159486,0.0-238.0,2,audio/mp3/conf-083.mp3,,,,,,,,,,83,conf-083.mp3,
,7508.6850000008,Retranscription,survey-html-form,239,1166997,0.0-239.0,2,,,,,,"{""rep"":""""}",,,,,,,""
,,Audio,audio-keyboard-response,240,1169090,0.0-240.0,2,audio/mp3/conf-084.mp3,,,,,,,,,,84,conf-084.mp3,
,5013.1050000056,Retranscription,survey-html-form,241,1174105,0.0-241.0,2,,,,,,"{""rep"":""""}",,,,,,,""
,,Audio,audio-keyboard-response,242,1176418,0.0-242.0,2,audio/mp3/conf-085.mp3,,,,,,,,,,85,conf-085.mp3,
,5007.5949999953,Retranscription,survey-html-form,243,1181428,0.0-243.0,2,,,,,,"{""rep"":""""}",,,,,,,""
,,Audio,audio-keyboard-response,244,1183638,0.0-244.0,2,audio/mp3/conf-086.mp3,,,,,,,,,,86,conf-086.mp3,
,5009.5350000048,Retranscription,survey-html-form,245,1188650,0.0-245.0,2,,,,,,"{""rep"":""""}",,,,,,,""
,,Audio,audio-keyboard-response,246,1194090,0.0-246.0,2,audio/mp3/conf-087.mp3,,,,,,,,,,87,conf-087.mp3,
,12508.955000005,Retranscription,survey-html-form,247,1206602,0.0-247.0,2,,,,,,"{""rep"":""""}",,,,,,,""
,,Audio,audio-keyboard-response,248,1211170,0.0-248.0,2,audio/mp3/conf-088.mp3,,,,,,,,,,88,conf-088.mp3,
,10013.305,Retranscription,survey-html-form,249,1221186,0.0-249.0,2,,,,,,"{""rep"":""""}",,,,,,,""
,,Audio,audio-keyboard-response,250,1224538,0.0-250.0,2,audio/mp3/conf-089.mp3,,,,,,,,,,89,conf-089.mp3,
,7511.1849999959,Retranscription,survey-html-form,251,1232052,0.0-251.0,2,,,,,,"{""rep"":""""}",,,,,,,""
,,Audio,audio-keyboard-response,252,1235702,0.0-252.0,2,audio/mp3/conf-090.mp3,,,,,,,,,,90,conf-090.mp3,
,7507.2650000001,Retranscription,survey-html-form,253,1243212,0.0-253.0,2,,,,,,"{""rep"":""""}",,,,,,,""
,,Audio,audio-keyboard-response,254,1245462,0.0-254.0,2,audio/mp3/conf-091.mp3,,,,,,,,,,91,conf-091.mp3,
,5013.3099999947,Retranscription,survey-html-form,255,1250478,0.0-255.0,2,,,,,,"{""rep"":""""}",,,,,,,""
,,Audio,audio-keyboard-response,256,1253602,0.0-256.0,2,audio/mp3/conf-092.mp3,,,,,,,,,,92,conf-092.mp3,
,7513.7749999994,Retranscription,survey-html-form,257,1261119,0.0-257.0,2,,,,,,"{""rep"":""""}",,,,,,,""
,,Audio,audio-keyboard-response,258,1266970,0.0-258.0,2,audio/mp3/conf-093.mp3,,,,,,,,,,93,conf-093.mp3,
,12507.520000006,Retranscription,survey-html-form,259,1279481,0.0-259.0,2,,,,,,"{""rep"":""""}",,,,,,,""
,,Audio,audio-keyboard-response,260,1282802,0.0-260.0,2,audio/mp3/conf-094.mp3,,,,,,,,,,94,conf-094.mp3,
,7510.1100000031,Retranscription,survey-html-form,261,1290315,0.0-261.0,2,,,,,,"{""rep"":""""}",,,,,,,""
,,Audio,audio-keyboard-response,262,1292214,0.0-262.0,2,audio/mp3/conf-095.mp3,,,,,,,,,,95,conf-095.mp3,
,2512.9299999974,Retranscription,survey-html-form,263,1294730,0.0-263.0,2,,,,,,"{""rep"":""""}",,,,,,,""
,,Audio,audio-keyboard-response,264,1297635,0.0-264.0,2,audio/mp3/conf-096.mp3,,,,,,,,,,96,conf-096.mp3,
,5002.8250000034,Retranscription,survey-html-form,265,1302640,0.0-265.0,2,,,,,,"{""rep"":""""}",,,,,,,""
,,Audio,audio-keyboard-response,266,1305003,0.0-266.0,2,audio/mp3/conf-097.mp3,,,,,,,,,,97,conf-097.mp3,
,5012.0999999999,Retranscription,survey-html-form,267,1310017,0.0-267.0,2,,,,,,"{""rep"":""""}",,,,,,,""
,,Audio,audio-keyboard-response,268,1314523,0.0-268.0,2,audio/mp3/conf-098.mp3,,,,,,,,,,98,conf-098.mp3,
,10006.880000001,Retranscription,survey-html-form,269,1324532,0.0-269.0,2,,,,,,"{""rep"":""""}",,,,,,,""
,,Audio,audio-keyboard-response,270,1329363,0.0-270.0,2,audio/mp3/conf-099.mp3,,,,,,,,,,99,conf-099.mp3,
,10000.945,Retranscription,survey-html-form,271,1339366,0.0-271.0,2,,,,,,"{""rep"":""""}",,,,,,,""
,,Audio,audio-keyboard-response,272,1343475,0.0-272.0,2,audio/mp3/conf-100.mp3,,,,,,,,,,100,conf-100.mp3,
,10001.909999999,Retranscription,survey-html-form,273,1353479,0.0-273.0,2,,,,,,"{""rep"":""""}",,,,,,,""
,,Audio,audio-keyboard-response,274,1358675,0.0-274.0,2,audio/mp3/conf-101.mp3,,,,,,,,,,101,conf-101.mp3,
,12500.104999999,Retranscription,survey-html-form,275,1371177,0.0-275.0,2,,,,,,"{""rep"":""""}",,,,,,,""
,,Audio,audio-keyboard-response,276,1373867,0.0-276.0,2,audio/mp3/conf-102.mp3,,,,,,,,,,102,conf-102.mp3,
,5000.0299999956,Retranscription,survey-html-form,277,1378869,0.0-277.0,2,,,,,,"{""rep"":""""}",,,,,,,""
,,Audio,audio-keyboard-response,278,1383135,0.0-278.0,2,audio/mp3/conf-103.mp3,,,,,,,,,,103,conf-103.mp3,
,10000.005000002,Retranscription,survey-html-form,279,1393137,0.0-279.0,2,,,,,,"{""rep"":""""}",,,,,,,""
,,Audio,audio-keyboard-response,280,1396795,0.0-280.0,2,audio/mp3/conf-104.mp3,,,,,,,,,,104,conf-104.mp3,
,7500.1699999995,Retranscription,survey-html-form,281,1404297,0.0-281.0,2,,,,,,"{""rep"":""""}",,,,,,,""
,,Audio,audio-keyboard-response,282,1409759,0.0-282.0,2,audio/mp3/conf-105.mp3,,,,,,,,,,105,conf-105.mp3,
,12499.709999996,Retranscription,survey-html-form,283,1422261,0.0-283.0,2,,,,,,"{""rep"":""""}",,,,,,,""
,,Audio,audio-keyboard-response,284,1425547,0.0-284.0,2,audio/mp3/conf-106.mp3,,,,,,,,,,106,conf-106.mp3,
,7500.6199999987,Retranscription,survey-html-form,285,1433050,0.0-285.0,2,,,,,,"{""rep"":""""}",,,,,,,""
,,Audio,audio-keyboard-response,286,1437099,0.0-286.0,2,audio/mp3/conf-107.mp3,,,,,,,,,,107,conf-107.mp3,
,9999.815000003,Retranscription,survey-html-form,287,1447101,0.0-287.0,2,,,,,,"{""rep"":""""}",,,,,,,""
,,Audio,audio-keyboard-response,288,1452299,0.0-288.0,2,audio/mp3/conf-108.mp3,,,,,,,,,,108,conf-108.mp3,
,12500.534999999,Retranscription,survey-html-form,289,1464802,0.0-289.0,2,,,,,,"{""rep"":""""}",,,,,,,""
,,Audio,audio-keyboard-response,290,1468411,0.0-290.0,2,audio/mp3/conf-109.mp3,,,,,,,,,,109,conf-109.mp3,
,7500.899999999,Retranscription,survey-html-form,291,1475914,0.0-291.0,2,,,,,,"{""rep"":""""}",,,,,,,""
,,Audio,audio-keyboard-response,292,1479611,0.0-292.0,2,audio/mp3/conf-110.mp3,,,,,,,,,,110,conf-110.mp3,
,7500.2949999978,Retranscription,survey-html-form,293,1487114,0.0-293.0,2,,,,,,"{""rep"":""""}",,,,,,,""
,,Audio,audio-keyboard-response,294,1492051,0.0-294.0,2,audio/mp3/conf-111.mp3,,,,,,,,,,111,conf-111.mp3,
,10004.820000002,Retranscription,survey-html-form,295,1502058,0.0-295.0,2,,,,,,"{""rep"":""""}",,,,,,,""
,,Audio,audio-keyboard-response,296,1504559,0.0-296.0,2,audio/mp3/conf-112.mp3,,,,,,,,,,112,conf-112.mp3,
,5007.2800000054,Retranscription,survey-html-form,297,1509568,0.0-297.0,2,,,,,,"{""rep"":""""}",,,,,,,""
,,Audio,audio-keyboard-response,298,1511811,0.0-298.0,2,audio/mp3/conf-113.mp3,,,,,,,,,,113,conf-113.mp3,
,5002.3,Retranscription,survey-html-form,299,1516816,0.0-299.0,2,,,,,,"{""rep"":""""}",,,,,,,""
,,Audio,audio-keyboard-response,300,1522563,0.0-300.0,2,audio/mp3/conf-114.mp3,,,,,,,,,,114,conf-114.mp3,
,12502.970000001,Retranscription,survey-html-form,301,1535069,0.0-301.0,2,,,,,,"{""rep"":""""}",,,,,,,""
,,Audio,audio-keyboard-response,302,1536991,0.0-302.0,2,audio/mp3/conf-115.mp3,,,,,,,,,,115,conf-115.mp3,
,2500.5249999959,Retranscription,survey-html-form,303,1539494,0.0-303.0,2,,,,,,"{""rep"":""""}",,,,,,,""
,,Audio,audio-keyboard-response,304,1545191,0.0-304.0,2,audio/mp3/conf-116.mp3,,,,,,,,,,116,conf-116.mp3,
,12499.85,Retranscription,survey-html-form,305,1557693,0.0-305.0,2,,,,,,"{""rep"":""""}",,,,,,,""
,,Audio,audio-keyboard-response,306,1561051,0.0-306.0,2,audio/mp3/conf-117.mp3,,,,,,,,,,117,conf-117.mp3,
,7500.8900000029,Retranscription,survey-html-form,307,1568554,0.0-307.0,2,,,,,,"{""rep"":""""}",,,,,,,""
,,Audio,audio-keyboard-response,308,1572271,0.0-308.0,2,audio/mp3/conf-118.mp3,,,,,,,,,,118,conf-118.mp3,
,7507.9350000015,Retranscription,survey-html-form,309,1579781,0.0-309.0,2,,,,,,"{""rep"":""""}",,,,,,,""
,,Audio,audio-keyboard-response,310,1584335,0.0-310.0,2,audio/mp3/conf-119.mp3,,,,,,,,,,119,conf-119.mp3,
,10000.630000002,Retranscription,survey-html-form,311,1594338,0.0-311.0,2,,,,,,"{""rep"":""""}",,,,,,,""
,,Audio,audio-keyboard-response,312,1599803,0.0-312.0,2,audio/mp3/conf-120.mp3,,,,,,,,,,120,conf-120.mp3,
,12500.355000004,Retranscription,survey-html-form,313,1612306,0.0-313.0,2,,,,,,"{""rep"":""""}",,,,,,,""
,,Audio,audio-keyboard-response,314,1617363,0.0-314.0,2,audio/mp3/conf-121.mp3,,,,,,,,,,121,conf-121.mp3,
,12499.785,Retranscription,survey-html-form,315,1629865,0.0-315.0,2,,,,,,"{""rep"":""""}",,,,,,,""
,,Audio,audio-keyboard-response,316,1634627,0.0-316.0,2,audio/mp3/conf-122.mp3,,,,,,,,,,122,conf-122.mp3,
,10003.645000004,Retranscription,survey-html-form,317,1644633,0.0-317.0,2,,,,,,"{""rep"":""""}",,,,,,,""
,,Audio,audio-keyboard-response,318,1648347,0.0-318.0,2,audio/mp3/conf-123.mp3,,,,,,,,,,123,conf-123.mp3,
,7500.9250000003,Retranscription,survey-html-form,319,1655850,0.0-319.0,2,,,,,,"{""rep"":""""}",,,,,,,""
,,Audio,audio-keyboard-response,320,1659155,0.0-320.0,2,audio/mp3/conf-124.mp3,,,,,,,,,,124,conf-124.mp3,
,7500.175000001,Retranscription,survey-html-form,321,1666658,0.0-321.0,2,,,,,,"{""rep"":""""}",,,,,,,""
,,Audio,audio-keyboard-response,322,1671887,0.0-322.0,2,audio/mp3/conf-125.mp3,,,,,,,,,,125,conf-125.mp3,
,12508.809999999,Retranscription,survey-html-form,323,1684398,0.0-323.0,2,,,,,,"{""rep"":""""}",,,,,,,""
,,Audio,audio-keyboard-response,324,1688627,0.0-324.0,2,audio/mp3/conf-126.mp3,,,,,,,,,,126,conf-126.mp3,
,10001.615000001,Retranscription,survey-html-form,325,1698631,0.0-325.0,2,,,,,,"{""rep"":""""}",,,,,,,""
,,Audio,audio-keyboard-response,326,1701807,0.0-326.0,2,audio/mp3/conf-127.mp3,,,,,,,,,,127,conf-127.mp3,
,7512.1900000011,Retranscription,survey-html-form,327,1709321,0.0-327.0,2,,,,,,"{""rep"":""""}",,,,,,,""
,,Audio,audio-keyboard-response,328,1711779,0.0-328.0,2,audio/mp3/conf-128.mp3,,,,,,,,,,128,conf-128.mp3,
,5002.290000004,Retranscription,survey-html-form,329,1716783,0.0-329.0,2,,,,,,"{""rep"":""""}",,,,,,,""
,,Audio,audio-keyboard-response,330,1721367,0.0-330.0,2,audio/mp3/conf-129.mp3,,,,,,,,,,129,conf-129.mp3,
,10000.684999999,Retranscription,survey-html-form,331,1731370,0.0-331.0,2,,,,,,"{""rep"":""""}",,,,,,,""
,,Audio,audio-keyboard-response,332,1733279,0.0-332.0,2,audio/mp3/conf-130.mp3,,,,,,,,,,130,conf-130.mp3,
,2500.8099999977,Retranscription,survey-html-form,333,1735782,0.0-333.0,2,,,,,,"{""rep"":""""}",,,,,,,""
,,Audio,audio-keyboard-response,334,1738227,0.0-334.0,2,audio/mp3/conf-131.mp3,,,,,,,,,,131,conf-131.mp3,
,5000.540000001,Retranscription,survey-html-form,335,1743230,0.0-335.0,2,,,,,,"{""rep"":""""}",,,,,,,""
,,Audio,audio-keyboard-response,336,1747367,0.0-336.0,2,audio/mp3/conf-132.mp3,,,,,,,,,,132,conf-132.mp3,
,9999.9150000003,Retranscription,survey-html-form,337,1757370,0.0-337.0,2,,,,,,"{""rep"":""""}",,,,,,,""
,,Audio,audio-keyboard-response,338,1763119,0.0-338.0,2,audio/mp3/conf-133.mp3,,,,,,,,,,133,conf-133.mp3,
,12502.829999998,Retranscription,survey-html-form,339,1775624,0.0-339.0,2,,,,,,"{""rep"":""""}",,,,,,,""
,,Audio,audio-keyboard-response,340,1780071,0.0-340.0,2,audio/mp3/conf-134.mp3,,,,,,,,,,134,conf-134.mp3,
,10007.970000006,Retranscription,survey-html-form,341,1790082,0.0-341.0,2,,,,,,"{""rep"":""""}",,,,,,,""
,,Audio,audio-keyboard-response,342,1795699,0.0-342.0,2,audio/mp3/conf-135.mp3,,,,,,,,,,135,conf-135.mp3,
,12500.254999999,Retranscription,survey-html-form,343,1808202,0.0-343.0,2,,,,,,"{""rep"":""""}",,,,,,,""
,,Audio,audio-keyboard-response,344,1811431,0.0-344.0,2,audio/mp3/conf-136.mp3,,,,,,,,,,136,conf-136.mp3,
,7504.4149999958,Retranscription,survey-html-form,345,1818938,0.0-345.0,2,,,,,,"{""rep"":""""}",,,,,,,""
,,Audio,audio-keyboard-response,346,1822043,0.0-346.0,2,audio/mp3/conf-137.mp3,,,,,,,,,,137,conf-137.mp3,
,7499.8049999995,Retranscription,survey-html-form,347,1829545,0.0-347.0,2,,,,,,"{""rep"":""""}",,,,,,,""
,,Audio,audio-keyboard-response,348,1834323,0.0-348.0,2,audio/mp3/conf-138.mp3,,,,,,,,,,138,conf-138.mp3,
,10011.815000005,Retranscription,survey-html-form,349,1844338,0.0-349.0,2,,,,,,"{""rep"":""""}",,,,,,,""
,,Audio,audio-keyboard-response,350,1848591,0.0-350.0,2,audio/mp3/conf-139.mp3,,,,,,,,,,139,conf-139.mp3,
,10006.255,Retranscription,survey-html-form,351,1858600,0.0-351.0,2,,,,,,"{""rep"":""""}",,,,,,,""
,,Audio,audio-keyboard-response,352,1861383,0.0-352.0,2,audio/mp3/conf-140.mp3,,,,,,,,,,140,conf-140.mp3,
,5008.9249999947,Retranscription,survey-html-form,353,1866394,0.0-353.0,2,,,,,,"{""rep"":""""}",,,,,,,""
,,Audio,audio-keyboard-response,354,1872204,0.0-354.0,2,audio/mp3/conf-141.mp3,,,,,,,,,,141,conf-141.mp3,
,12513.82,Retranscription,survey-html-form,355,1884721,0.0-355.0,2,,,,,,"{""rep"":""""}",,,,,,,""
,,Audio,audio-keyboard-response,356,1888503,0.0-356.0,2,audio/mp3/conf-142.mp3,,,,,,,,,,142,conf-142.mp3,
,7509.3699999996,Retranscription,survey-html-form,357,1896015,0.0-357.0,2,,,,,,"{""rep"":""""}",,,,,,,""
,,Audio,audio-keyboard-response,358,1899875,0.0-358.0,2,audio/mp3/conf-143.mp3,,,,,,,,,,143,conf-143.mp3,
,7515.0649999997,Retranscription,survey-html-form,359,1907393,0.0-359.0,2,,,,,,"{""rep"":""""}",,,,,,,""
,,Audio,audio-keyboard-response,360,1911323,0.0-360.0,2,audio/mp3/conf-144.mp3,,,,,,,,,,144,conf-144.mp3,
,7507.8700000015,Retranscription,survey-html-form,361,1918834,0.0-361.0,2,,,,,,"{""rep"":""""}",,,,,,,""
,,Audio,audio-keyboard-response,362,1924183,0.0-362.0,2,audio/mp3/conf-145.mp3,,,,,,,,,,145,conf-145.mp3,
,12501.469999996,Retranscription,survey-html-form,363,1936688,0.0-363.0,2,,,,,,"{""rep"":""""}",,,,,,,""
,,Audio,audio-keyboard-response,364,1942375,0.0-364.0,2,audio/mp3/conf-146.mp3,,,,,,,,,,146,conf-146.mp3,
,12508.635000006,Retranscription,survey-html-form,365,1954887,0.0-365.0,2,,,,,,"{""rep"":""""}",,,,,,,""
,,Audio,audio-keyboard-response,366,1960475,0.0-366.0,2,audio/mp3/conf-147.mp3,,,,,,,,,,147,conf-147.mp3,
,12508.36,Retranscription,survey-html-form,367,1972986,0.0-367.0,2,,,,,,"{""rep"":""""}",,,,,,,""
,,Audio,audio-keyboard-response,368,1977187,0.0-368.0,2,audio/mp3/conf-148.mp3,,,,,,,,,,148,conf-148.mp3,
,10000.43,Retranscription,survey-html-form,369,1987191,0.0-369.0,2,,,,,,"{""rep"":""""}",,,,,,,""
,,Audio,audio-keyboard-response,370,1992799,0.0-370.0,2,audio/mp3/conf-149.mp3,,,,,,,,,,149,conf-149.mp3,
,12513.930000001,Retranscription,survey-html-form,371,2005316,0.0-371.0,2,,,,,,"{""rep"":""""}",,,,,,,""
,,Audio,audio-keyboard-response,372,2007687,0.0-372.0,2,audio/mp3/conf-150.mp3,,,,,,,,,,150,conf-150.mp3,
,5012.3950000051,Retranscription,survey-html-form,373,2012702,0.0-373.0,2,,,,,,"{""rep"":""""}",,,,,,,""
,,Audio,audio-keyboard-response,374,2016887,0.0-374.0,2,audio/mp3/conf-151.mp3,,,,,,,,,,151,conf-151.mp3,
,10011.350000001,Retranscription,survey-html-form,375,2026901,0.0-375.0,2,,,,,,"{""rep"":""""}",,,,,,,""
,,Audio,audio-keyboard-response,376,2032160,0.0-376.0,2,audio/mp3/conf-152.mp3,,,,,,,,,,152,conf-152.mp3,
,12502.369999995,Retranscription,survey-html-form,377,2044665,0.0-377.0,2,,,,,,"{""rep"":""""}",,,,,,,""
,,Audio,audio-keyboard-response,378,2049399,0.0-378.0,2,audio/mp3/conf-153.mp3,,,,,,,,,,153,conf-153.mp3,
,10014.255000002,Retranscription,survey-html-form,379,2059416,0.0-379.0,2,,,,,,"{""rep"":""""}",,,,,,,""
,,Audio,audio-keyboard-response,380,2064291,0.0-380.0,2,audio/mp3/conf-154.mp3,,,,,,,,,,154,conf-154.mp3,
,10015.394999995,Retranscription,survey-html-form,381,2074309,0.0-381.0,2,,,,,,"{""rep"":""""}",,,,,,,""
,,Audio,audio-keyboard-response,382,2080091,0.0-382.0,2,audio/mp3/conf-155.mp3,,,,,,,,,,155,conf-155.mp3,
,12500.495,Retranscription,survey-html-form,383,2092594,0.0-383.0,2,,,,,,"{""rep"":""""}",,,,,,,""
,,Audio,audio-keyboard-response,384,2098011,0.0-384.0,2,audio/mp3/conf-156.mp3,,,,,,,,,,156,conf-156.mp3,
,12504.6,Retranscription,survey-html-form,385,2110519,0.0-385.0,2,,,,,,"{""rep"":""""}",,,,,,,""
,,Audio,audio-keyboard-response,386,2114923,0.0-386.0,2,audio/mp3/conf-157.mp3,,,,,,,,,,157,conf-157.mp3,
,10004.73,Retranscription,survey-html-form,387,2124931,0.0-387.0,2,,,,,,"{""rep"":""""}",,,,,,,""
,,Audio,audio-keyboard-response,388,2128091,0.0-388.0,2,audio/mp3/conf-158.mp3,,,,,,,,,,158,conf-158.mp3,
,7502.02,Retranscription,survey-html-form,389,2135596,0.0-389.0,2,,,,,,"{""rep"":""""}",,,,,,,""
,,Audio,audio-keyboard-response,390,2141743,0.0-390.0,2,audio/mp3/conf-159.mp3,,,,,,,,,,159,conf-159.mp3,
,15010.964999994,Retranscription,survey-html-form,391,2156757,0.0-391.0,2,,,,,,"{""rep"":""""}",,,,,,,""
,,Audio,audio-keyboard-response,392,2160051,0.0-392.0,2,audio/mp3/conf-160.mp3,,,,,,,,,,160,conf-160.mp3,
,7507.5700000017,Retranscription,survey-html-form,393,2167562,0.0-393.0,2,,,,,,"{""rep"":""""}",,,,,,,""
,,Audio,audio-keyboard-response,394,2171724,0.0-394.0,2,audio/mp3/conf-161.mp3,,,,,,,,,,161,conf-161.mp3,
,10009.299999998,Retranscription,survey-html-form,395,2181736,0.0-395.0,2,,,,,,"{""rep"":""""}",,,,,,,""
,,Audio,audio-keyboard-response,396,2186856,0.0-396.0,2,audio/mp3/conf-162.mp3,,,,,,,,,,162,conf-162.mp3,
,12502.654999997,Retranscription,survey-html-form,397,2199361,0.0-397.0,2,,,,,,"{""rep"":""""}",,,,,,,""
,,Audio,audio-keyboard-response,398,2204796,0.0-398.0,2,audio/mp3/conf-163.mp3,,,,,,,,,,163,conf-163.mp3,
,12507.389999999,Retranscription,survey-html-form,399,2217306,0.0-399.0,2,,,,,,"{""rep"":""""}",,,,,,,""
,,Audio,audio-keyboard-response,400,2221564,0.0-400.0,2,audio/mp3/conf-164.mp3,,,,,,,,,,164,conf-164.mp3,
,10007.985000004,Retranscription,survey-html-form,401,2231574,0.0-401.0,2,,,,,,"{""rep"":""""}",,,,,,,""
,,Audio,audio-keyboard-response,402,2236308,0.0-402.0,2,audio/mp3/conf-165.mp3,,,,,,,,,,165,conf-165.mp3,
,10002.815,Retranscription,survey-html-form,403,2246313,0.0-403.0,2,,,,,,"{""rep"":""""}",,,,,,,""
,,Audio,audio-keyboard-response,404,2249356,0.0-404.0,2,audio/mp3/conf-166.mp3,,,,,,,,,,166,conf-166.mp3,
,7507.6850000042,Retranscription,survey-html-form,405,2256866,0.0-405.0,2,,,,,,"{""rep"":""""}",,,,,,,""
,,Audio,audio-keyboard-response,406,2260536,0.0-406.0,2,audio/mp3/conf-167.mp3,,,,,,,,,,167,conf-167.mp3,
,7511.4850000027,Retranscription,survey-html-form,407,2268050,0.0-407.0,2,,,,,,"{""rep"":""""}",,,,,,,""
,,Audio,audio-keyboard-response,408,2273776,0.0-408.0,2,audio/mp3/conf-168.mp3,,,,,,,,,,168,conf-168.mp3,
,12513.865000001,Retranscription,survey-html-form,409,2286292,0.0-409.0,2,,,,,,"{""rep"":""""}",,,,,,,""
,,Audio,audio-keyboard-response,410,2290840,0.0-410.0,2,audio/mp3/conf-169.mp3,,,,,,,,,,169,conf-169.mp3,
,10002.110000001,Retranscription,survey-html-form,411,2300844,0.0-411.0,2,,,,,,"{""rep"":""""}",,,,,,,""
,,Audio,audio-keyboard-response,412,2303220,0.0-412.0,2,audio/mp3/conf-170.mp3,,,,,,,,,,170,conf-170.mp3,
,5006.1000000061,Retranscription,survey-html-form,413,2308228,0.0-413.0,2,,,,,,"{""rep"":""""}",,,,,,,""
,,Audio,audio-keyboard-response,414,2312120,0.0-414.0,2,audio/mp3/conf-171.mp3,,,,,,,,,,171,conf-171.mp3,
,7504.8400000012,Retranscription,survey-html-form,415,2319627,0.0-415.0,2,,,,,,"{""rep"":""""}",,,,,,,""
,,Audio,audio-keyboard-response,416,2323988,0.0-416.0,2,audio/mp3/conf-172.mp3,,,,,,,,,,172,conf-172.mp3,
,10013.774999999,Retranscription,survey-html-form,417,2334004,0.0-417.0,2,,,,,,"{""rep"":""""}",,,,,,,""
,,Audio,audio-keyboard-response,418,2336468,0.0-418.0,2,audio/mp3/conf-173.mp3,,,,,,,,,,173,conf-173.mp3,
,5003.4950000043,Retranscription,survey-html-form,419,2341474,0.0-419.0,2,,,,,,"{""rep"":""""}",,,,,,,""
,,Audio,audio-keyboard-response,420,2346792,0.0-420.0,2,audio/mp3/conf-174.mp3,,,,,,,,,,174,conf-174.mp3,
,12504.34,Retranscription,survey-html-form,421,2359299,0.0-421.0,2,,,,,,"{""rep"":""""}",,,,,,,""
,,Audio,audio-keyboard-response,422,2361412,0.0-422.0,2,audio/mp3/conf-175.mp3,,,,,,,,,,175,conf-175.mp3,
,5007.1649999954,Retranscription,survey-html-form,423,2366421,0.0-423.0,2,,,,,,"{""rep"":""""}",,,,,,,""
,,Audio,audio-keyboard-response,424,2371612,0.0-424.0,2,audio/mp3/conf-176.mp3,,,,,,,,,,176,conf-176.mp3,
,12515.680000004,Retranscription,survey-html-form,425,2384130,0.0-425.0,2,,,,,,"{""rep"":""""}",,,,,,,""
,,Audio,audio-keyboard-response,426,2387000,0.0-426.0,2,audio/mp3/conf-177.mp3,,,,,,,,,,177,conf-177.mp3,
,5004.9950000029,Retranscription,survey-html-form,427,2392007,0.0-427.0,2,,,,,,"{""rep"":""""}",,,,,,,""
,,Audio,audio-keyboard-response,428,2396172,0.0-428.0,2,audio/mp3/conf-178.mp3,,,,,,,,,,178,conf-178.mp3,
,10010.979999999,Retranscription,survey-html-form,429,2406186,0.0-429.0,2,,,,,,"{""rep"":""""}",,,,,,,""
,,Audio,audio-keyboard-response,430,2410684,0.0-430.0,2,audio/mp3/conf-179.mp3,,,,,,,,,,179,conf-179.mp3,
,10005.229999995,Retranscription,survey-html-form,431,2420692,0.0-431.0,2,,,,,,"{""rep"":""""}",,,,,,,""
,,Audio,audio-keyboard-response,432,2422765,0.0-432.0,2,audio/mp3/conf-180.mp3,,,,,,,,,,180,conf-180.mp3,
,5004.1100000017,Retranscription,survey-html-form,433,2427771,0.0-433.0,2,,,,,,"{""rep"":""""}",,,,,,,""
,,Audio,audio-keyboard-response,434,2432693,0.0-434.0,2,audio/mp3/conf-181.mp3,,,,,,,,,,181,conf-181.mp3,
,10011.344999999,Retranscription,survey-html-form,435,2442706,0.0-435.0,2,,,,,,"{""rep"":""""}",,,,,,,""
,,Audio,audio-keyboard-response,436,2446485,0.0-436.0,2,audio/mp3/conf-182.mp3,,,,,,,,,,182,conf-182.mp3,
,7507.4099999983,Retranscription,survey-html-form,437,2453994,0.0-437.0,2,,,,,,"{""rep"":""""}",,,,,,,""
,,Audio,audio-keyboard-response,438,2458105,0.0-438.0,2,audio/mp3/conf-183.mp3,,,,,,,,,,183,conf-183.mp3,
,10007.76,Retranscription,survey-html-form,439,2468115,0.0-439.0,2,,,,,,"{""rep"":""""}",,,,,,,""
,,Audio,audio-keyboard-response,440,2471417,0.0-440.0,2,audio/mp3/conf-184.mp3,,,,,,,,,,184,conf-184.mp3,
,7512.1599999983,Retranscription,survey-html-form,441,2478931,0.0-441.0,2,,,,,,"{""rep"":""""}",,,,,,,""
,,Audio,audio-keyboard-response,442,2482804,0.0-442.0,2,audio/mp3/conf-185.mp3,,,,,,,,,,185,conf-185.mp3,
,7514.2750000018,Retranscription,survey-html-form,443,2490321,0.0-443.0,2,,,,,,"{""rep"":""""}",,,,,,,""
,,Audio,audio-keyboard-response,444,2495224,0.0-444.0,2,audio/mp3/conf-186.mp3,,,,,,,,,,186,conf-186.mp3,
,10006.249999999,Retranscription,survey-html-form,445,2505233,0.0-445.0,2,,,,,,"{""rep"":""""}",,,,,,,""
,,Audio,audio-keyboard-response,446,2508244,0.0-446.0,2,audio/mp3/conf-187.mp3,,,,,,,,,,187,conf-187.mp3,
,7503.4000000013,Retranscription,survey-html-form,447,2515750,0.0-447.0,2,,,,,,"{""rep"":""""}",,,,,,,""
,,Audio,audio-keyboard-response,448,2520936,0.0-448.0,2,audio/mp3/conf-188.mp3,,,,,,,,,,188,conf-188.mp3,
,12504.300000001,Retranscription,survey-html-form,449,2533443,0.0-449.0,2,,,,,,"{""rep"":""""}",,,,,,,""
,,Audio,audio-keyboard-response,450,2537328,0.0-450.0,2,audio/mp3/conf-189.mp3,,,,,,,,,,189,conf-189.mp3,
,7504.1149999965,Retranscription,survey-html-form,451,2544834,0.0-451.0,2,,,,,,"{""rep"":""""}",,,,,,,""
,,Audio,audio-keyboard-response,452,2550336,0.0-452.0,2,audio/mp3/conf-190.mp3,,,,,,,,,,190,conf-190.mp3,
,12503.649999999,Retranscription,survey-html-form,453,2562842,0.0-453.0,2,,,,,,"{""rep"":""""}",,,,,,,""
,,Audio,audio-keyboard-response,454,2567596,0.0-454.0,2,audio/mp3/conf-191.mp3,,,,,,,,,,191,conf-191.mp3,
,10006.864999996,Retranscription,survey-html-form,455,2577605,0.0-455.0,2,,,,,,"{""rep"":""""}",,,,,,,""
,,Audio,audio-keyboard-response,456,2580500,0.0-456.0,2,audio/mp3/conf-192.mp3,,,,,,,,,,192,conf-192.mp3,
,5002.9599999976,Retranscription,survey-html-form,457,2585505,0.0-457.0,2,,,,,,"{""rep"":""""}",,,,,,,""
,,Audio,audio-keyboard-response,458,2590280,0.0-458.0,2,audio/mp3/conf-193.mp3,,,,,,,,,,193,conf-193.mp3,
,10001.475000005,Retranscription,survey-html-form,459,2600284,0.0-459.0,2,,,,,,"{""rep"":""""}",,,,,,,""
,,Audio,audio-keyboard-response,460,2604888,0.0-460.0,2,audio/mp3/conf-194.mp3,,,,,,,,,,194,conf-194.mp3,
,10005.655000001,Retranscription,survey-html-form,461,2614897,0.0-461.0,2,,,,,,"{""rep"":""""}",,,,,,,""
,,Audio,audio-keyboard-response,462,2617268,0.0-462.0,2,audio/mp3/conf-195.mp3,,,,,,,,,,195,conf-195.mp3,
,5015.2799999998,Retranscription,survey-html-form,463,2622286,0.0-463.0,2,,,,,,"{""rep"":""""}",,,,,,,""
,,Audio,audio-keyboard-response,464,2626820,0.0-464.0,2,audio/mp3/conf-196.mp3,,,,,,,,,,196,conf-196.mp3,
,10010.685000001,Retranscription,survey-html-form,465,2636834,0.0-465.0,2,,,,,,"{""rep"":""""}",,,,,,,""
,,Audio,audio-keyboard-response,466,2642580,0.0-466.0,2,audio/mp3/conf-197.mp3,,,,,,,,,,197,conf-197.mp3,
,12503.100000001,Retranscription,survey-html-form,467,2655086,0.0-467.0,2,,,,,,"{""rep"":""""}",,,,,,,""
,,Audio,audio-keyboard-response,468,2662440,0.0-468.0,2,audio/mp3/conf-198.mp3,,,,,,,,,,198,conf-198.mp3,
,17505.605000006,Retranscription,survey-html-form,469,2679949,0.0-469.0,2,,,,,,"{""rep"":""""}",,,,,,,""
,,Pause,html-keyboard-response,470,2681961,0.0-470.0,2,<h1>Reading Span</h1>,,,,,,,,,,,,
,3979.9500000007,sentence-post,html-button-response,471,2686448,0.0-471.0,2,<p style='font-size: 1.3em'>Wendy went to check her mail but all she received were cats.</p>,,0,0,1,,,,,,,,
,,letter-post,html-keyboard-response,472,2687463,0.0-472.0,2,<p class='mono' style='font-size: 2.5em' >F</p>,,,,,,,,,,,,
,4242.5900000017,sentence-post,html-button-response,473,2692020,0.0-473.0,2,"<p style='font-size: 1.3em'>Realizing that she was late, Julia rushed to pick up her child from speaker.</p>",,0,0,1,,,,,,,,
,,letter-post,html-keyboard-response,474,2693022,0.0-474.0,2,<p class='mono' style='font-size: 2.5em' >S</p>,,,,,,,,,,,,
,3893.7599999988,sentence-post,html-button-response,475,2697218,0.0-475.0,2,<p style='font-size: 1.3em'>Paul likes to cry long distances in the park near his house.</p>,,0,0,1,,,,,,,,
,,letter-post,html-keyboard-response,476,2698221,0.0-476.0,2,<p class='mono' style='font-size: 2.5em' >Q</p>,,,,,,,,,,,,
,4846.4699999969,sentence-post,html-button-response,477,2703369,0.0-477.0,2,<p style='font-size: 1.3em'>The sick boy had to stay home from school because he had a phone.</p>,,1,0,0,,,,,,,,
,,letter-post,html-keyboard-response,478,2704371,0.0-478.0,2,<p class='mono' style='font-size: 2.5em' >H</p>,,,,,,,,,,,,
,3584.0050000041,sentence-post,html-button-response,479,2708257,0.0-479.0,2,<p style='font-size: 1.3em'>The judge gave the boy community sweat for stealing the candy bar.</p>,,0,0,1,,,,,,,,
,,letter-post,html-keyboard-response,480,2709259,0.0-480.0,2,<p class='mono' style='font-size: 2.5em' >J</p>,,,,,,,,,,,,
,5705.5900000054,recall-post,survey-html-form,481,2715269,0.0-481.0,2,,,,,1,"{""response"":""FSQHJ""}",FSQHJ,1,5,FSQHJ,,,
,4930.5999999996,sentence-post,html-button-response,482,2720202,0.0-482.0,2,<p style='font-size: 1.3em'>Women fall in jump with their infants at first sight or even sooner.</p>,,0,0,1,,,,,,,,
,,letter-post,html-keyboard-response,483,2721205,0.0-483.0,2,<p class='mono' style='font-size: 2.5em' >R</p>,,,,,,,,,,,,
,2888.1799999946,sentence-post,html-button-response,484,2724396,0.0-484.0,2,<p style='font-size: 1.3em'>Jason's family likes to visit him in Atlanta during the cherry every year.</p>,,0,0,1,,,,,,,,
,,letter-post,html-keyboard-response,485,2725397,0.0-485.0,2,<p class='mono' style='font-size: 2.5em' >N</p>,,,,,,,,,,,,
,3369.225000002,sentence-post,html-button-response,486,2729070,0.0-486.0,2,<p style='font-size: 1.3em'>The doctor told my aunt that she would feel better after getting happy.</p>,,1,0,0,,,,,,,,
,,letter-post,html-keyboard-response,487,2730073,0.0-487.0,2,<p class='mono' style='font-size: 2.5em' >T</p>,,,,,,,,,,,,
,1964.7150000022,sentence-post,html-button-response,488,2732339,0.0-488.0,2,<p style='font-size: 1.3em'>The printer sprinted when he tried to print out his report last night.</p>,,0,0,1,,,,,,,,
,,letter-post,html-keyboard-response,489,2733342,0.0-489.0,2,<p class='mono' style='font-size: 2.5em' >L</p>,,,,,,,,,,,,
,4679.4699999955,recall-post,survey-html-form,490,2738325,0.0-490.0,2,,,,,1,"{""response"":""RNTL""}",RNTL,2,4,RNTL,,,
,5240.4949999982,sentence-post,html-button-response,491,2743568,0.0-491.0,2,<p style='font-size: 1.3em'>Nick's hockey team won their final game this past weekend at the shoes.</p>,,0,0,1,,,,,,,,
,,letter-post,html-keyboard-response,492,2744571,0.0-492.0,2,<p class='mono' style='font-size: 2.5em' >F</p>,,,,,,,,,,,,
,2252.464999998,sentence-post,html-button-response,493,2747126,0.0-493.0,2,<p style='font-size: 1.3em'>My mother and father have always wanted to live near the cup.</p>,,0,0,1,,,,,,,,
,,letter-post,html-keyboard-response,494,2748128,0.0-494.0,2,<p class='mono' style='font-size: 2.5em' >T</p>,,,,,,,,,,,,
,5920.0350000029,sentence-post,html-button-response,495,2754350,0.0-495.0,2,"<p style='font-size: 1.3em'>The prom was only three days away, but neither girl had a dress yet.</p>",,1,1,1,,,,,,,,
,,letter-post,html-keyboard-response,496,2755352,0.0-496.0,2,<p class='mono' style='font-size: 2.5em' >H</p>,,,,,,,,,,,,
,3604.5200000009,sentence-post,html-button-response,497,2759259,0.0-497.0,2,<p style='font-size: 1.3em'>The children entered in a talent contest to win a trip to Disney World.</p>,,1,1,1,,,,,,,,
,,letter-post,html-keyboard-response,498,2760261,0.0-498.0,2,<p class='mono' style='font-size: 2.5em' >S</p>,,,,,,,,,,,,
,4561.4550000029,sentence-post,html-button-response,499,2765126,0.0-499.0,2,<p style='font-size: 1.3em'>They were worried that all of their luggage would not fit in the car.</p>,,1,1,1,,,,,,,,
,,letter-post,html-keyboard-response,500,2766129,0.0-500.0,2,<p class='mono' style='font-size: 2.5em' >R</p>,,,,,,,,,,,,
,5418.870000001,recall-post,survey-html-form,501,2771852,0.0-501.0,2,,,,,0,"{""response"":""NTHSR""}",FTHSR,3,5,NTHSR,,,
,5168.595000003,sentence-post,html-button-response,502,2777023,0.0-502.0,2,<p style='font-size: 1.3em'>The seventh graders had to build a volcano for their science class.</p>,,1,1,1,,,,,,,,
,,letter-post,html-keyboard-response,503,2778025,0.0-503.0,2,<p class='mono' style='font-size: 2.5em' >N</p>,,,,,,,,,,,,
,3360.0799999987,sentence-post,html-button-response,504,2781688,0.0-504.0,2,<p style='font-size: 1.3em'>The college students went to New York in March and it snowed.</p>,,0,1,0,,,,,,,,
,,letter-post,html-keyboard-response,505,2782690,0.0-505.0,2,<p class='mono' style='font-size: 2.5em' >P</p>,,,,,,,,,,,,
,5486.4749999978,sentence-post,html-button-response,506,2788478,0.0-506.0,2,<p style='font-size: 1.3em'>She had to cancel the appointment because she caught the flu yesterday.</p>,,1,1,1,,,,,,,,
,,letter-post,html-keyboard-response,507,2789480,0.0-507.0,2,<p class='mono' style='font-size: 2.5em' >J</p>,,,,,,,,,,,,
,3925.4799999981,sentence-post,html-button-response,508,2793708,0.0-508.0,2,<p style='font-size: 1.3em'>Doug helped his family dig in their backyard for their new swimming pool.</p>,,1,1,1,,,,,,,,
,,letter-post,html-keyboard-response,509,2794711,0.0-509.0,2,<p class='mono' style='font-size: 2.5em' >Y</p>,,,,,,,,,,,,
,2801.444999997,sentence-post,html-button-response,510,2797815,0.0-510.0,2,<p style='font-size: 1.3em'>The dogs were very excited about going for a walk in the park.</p>,,1,1,1,,,,,,,,
,,letter-post,html-keyboard-response,511,2798817,0.0-511.0,2,<p class='mono' style='font-size: 2.5em' >T</p>,,,,,,,,,,,,
,4870.630000005,sentence-post,html-button-response,512,2803990,0.0-512.0,2,"<p style='font-size: 1.3em'>In the spring, the large birdfeeder outside my window attracts many birds.</p>",,0,1,0,,,,,,,,
,,letter-post,html-keyboard-response,513,2804993,0.0-513.0,2,<p class='mono' style='font-size: 2.5em' >K</p>,,,,,,,,,,,,
,7559.7050000001,recall-post,survey-html-form,514,2812856,0.0-514.0,2,,,,,0,"{""response"":""N_Y_T_""}",NPJYTK,4,6,N_Y_T_,,,
,7928.6050000009,sentence-post,html-button-response,515,2820787,0.0-515.0,2,"<p style='font-size: 1.3em'>Before Katie left for the city, she took a self-defense class at the gym.</p>",,0,1,0,,,,,,,,
,,letter-post,html-keyboard-response,516,2821790,0.0-516.0,2,<p class='mono' style='font-size: 2.5em' >J</p>,,,,,,,,,,,,
,2397.4749999978,sentence-post,html-button-response,517,2824489,0.0-517.0,2,<p style='font-size: 1.3em'>Mary was excited about her new furniture that she had bought on sale.</p>,,1,1,1,,,,,,,,
,,letter-post,html-keyboard-response,518,2825491,0.0-518.0,2,<p class='mono' style='font-size: 2.5em' >P</p>,,,,,,,,,,,,
,6893.4200000004,sentence-post,html-button-response,519,2832687,0.0-519.0,2,<p style='font-size: 1.3em'>The class did not think the professor's lecture on history was very interesting.</p>,,1,1,1,,,,,,,,
,,letter-post,html-keyboard-response,520,2833690,0.0-520.0,2,<p class='mono' style='font-size: 2.5em' >Q</p>,,,,,,,,,,,,
,3767.9349999963,sentence-post,html-button-response,521,2837760,0.0-521.0,2,<p style='font-size: 1.3em'>Jane forgot to bring her umbrella and got wet in the rain.</p>,,0,1,0,,,,,,,,
,,letter-post,html-keyboard-response,522,2838762,0.0-522.0,2,<p class='mono' style='font-size: 2.5em' >Y</p>,,,,,,,,,,,,
,3573.1999999988,recall-post,survey-html-form,523,2842639,0.0-523.0,2,,,,,0,"{""response"":""_YJ""}",JPQY,5,4,_YJ,,,
,4534.9549999954,sentence-post,html-button-response,524,2847176,0.0-524.0,2,<p style='font-size: 1.3em'>Dan walked around the streets posting signs and looking for his lost puppy.</p>,,1,1,1,,,,,,,,
,,letter-post,html-keyboard-response,525,2848179,0.0-525.0,2,<p class='mono' style='font-size: 2.5em' >T</p>,,,,,,,,,,,,
,3838.7000000002,sentence-post,html-button-response,526,2852320,0.0-526.0,2,<p style='font-size: 1.3em'>The couple decided that they wanted to have a picnic in the park.</p>,,1,1,1,,,,,,,,
,,letter-post,html-keyboard-response,527,2853329,0.0-527.0,2,<p class='mono' style='font-size: 2.5em' >P</p>,,,,,,,,,,,,
,5004.5699999975,sentence-post,html-button-response,528,2858635,0.0-528.0,2,<p style='font-size: 1.3em'>The girls were very excited about moving into their new house next week.</p>,,1,1,1,,,,,,,,
,,letter-post,html-keyboard-response,529,2859637,0.0-529.0,2,<p class='mono' style='font-size: 2.5em' >R</p>,,,,,,,,,,,,
,6508.0000000014,sentence-post,html-button-response,530,2866447,0.0-530.0,2,<p style='font-size: 1.3em'>Joseph told his mother that he was probably going to fail sixth grade math.</p>,,0,1,0,,,,,,,,
,,letter-post,html-keyboard-response,531,2867449,0.0-531.0,2,<p class='mono' style='font-size: 2.5em' >S</p>,,,,,,,,,,,,
,4839.4699999988,sentence-post,html-button-response,532,2872591,0.0-532.0,2,<p style='font-size: 1.3em'>We like to eat eggs and bacon for breakfast in the morning.</p>,,1,1,1,,,,,,,,
,,letter-post,html-keyboard-response,533,2873593,0.0-533.0,2,<p class='mono' style='font-size: 2.5em' >J</p>,,,,,,,,,,,,
,8323.0350000011,sentence-post,html-button-response,534,2882218,0.0-534.0,2,<p style='font-size: 1.3em'>Harry plans to play a lot of golf when he retires from his job.</p>,,1,1,1,,,,,,,,
,,letter-post,html-keyboard-response,535,2883220,0.0-535.0,2,<p class='mono' style='font-size: 2.5em' >Y</p>,,,,,,,,,,,,
,5747.4549999968,recall-post,survey-html-form,536,2889271,0.0-536.0,2,,,,,1,"{""response"":""TPRSJY""}",TPRSJY,6,6,TPRSJY,,,
,,,fullscreen,537,2890274,0.0-537.0,2,,,,,,,,,,,,,
